randomization,CR1,CR2,CR3,deval,participant,date,expName,psychopyVersion,OS,frameRate,key_resp_trial_practice.keys,phase,correct,trials_practice_with_late.thisRepN,trials_practice_with_late.thisTrialN,trials_practice_with_late.thisN,trials_practice_with_late.thisIndex,trials_practice_with_late.ran,stimulus_practice,mapping_practice,key_resp_trial_practice.rt,trials_practice_exposure.thisRepN,trials_practice_exposure.thisTrialN,trials_practice_exposure.thisN,trials_practice_exposure.thisIndex,trials_practice_exposure.ran,duration_image_practice,trials_practice.thisRepN,trials_practice.thisTrialN,trials_practice.thisN,trials_practice.thisIndex,trials_practice.ran,repeat,total_correct,trials_outer_practice.thisRepN,trials_outer_practice.thisTrialN,trials_outer_practice.thisN,trials_outer_practice.thisIndex,trials_outer_practice.ran,trials_exposure_training.thisRepN,trials_exposure_training.thisTrialN,trials_exposure_training.thisN,trials_exposure_training.thisIndex,trials_exposure_training.ran,stimulus_training,mapping_training,key_resp_trial_training.keys,key_resp_trial_training.rt,condition_new_t,trials_training_1.thisRepN,trials_training_1.thisTrialN,trials_training_1.thisN,trials_training_1.thisIndex,trials_training_1.ran,devaluated_image,trials_repeat_deval.thisRepN,trials_repeat_deval.thisTrialN,trials_repeat_deval.thisN,trials_repeat_deval.thisIndex,trials_repeat_deval.ran,condition_new_t2,trials_training2.thisRepN,trials_training2.thisTrialN,trials_training2.thisN,trials_training2.thisIndex,trials_training2.ran,slider.response,slider.rt,loop_rating.thisRepN,loop_rating.thisTrialN,loop_rating.thisN,loop_rating.thisIndex,loop_rating.ran,rating_stimulus,rating_condition,key_resp_trial.keys,condition_new,trials_1.thisRepN,trials_1.thisTrialN,trials_1.thisN,trials_1.thisIndex,trials_1.ran,stimulus,mapping,key_resp_trial.rt,trials_repeat_deval_2.thisRepN,trials_repeat_deval_2.thisTrialN,trials_repeat_deval_2.thisN,trials_repeat_deval_2.thisIndex,trials_repeat_deval_2.ran,trials_2.thisRepN,trials_2.thisTrialN,trials_2.thisN,trials_2.thisIndex,trials_2.ran,slider_exp_rating.response,slider_exp_rating.rt,trials_exp_rating.thisRepN,trials_exp_rating.thisTrialN,trials_exp_rating.thisN,trials_exp_rating.thisIndex,trials_exp_rating.ran,urge_stim,slider_urge_rating.response,slider_urge_rating.rt,slider_urge_sup_rating.response,slider_urge_sup_rating.rt
3,m,x,safe,1,AHT_A1,2024-01-18_14h24.27.407,AHT_money_legacy,2022.2.3,Win32,59.52380952,,,,,,,,,,,,,,,,,,,,,,,,,,,,,,,,,,,,,,,,,,,,,,,,,,,,,,,,,,,,,,,,,,,,,,,,,,,,,,,,,,,,,,,,,,,,,,,,,
,,,,,AHT_A1,2024-01-18_14h24.27.407,AHT_money_legacy,2022.2.3,Win32,59.52380952,,,,,,,,,,,,,,,,,,,,,,,,,,,,,,,,,,,,,,,,,,,,,,,,,,,,,,,,,,,,,,,,,,,,,,,,,,,,,,,,,,,,,,,,,,,,,,,,,
,,,,,AHT_A1,2024-01-18_14h24.27.407,AHT_money_legacy,2022.2.3,Win32,59.52380952,,,,,,,,,,,,,,,,,,,,,,,,,,,,,,,,,,,,,,,,,,,,,,,,,,,,,,,,,,,,,,,,,,,,,,,,,,,,,,,,,,,,,,,,,,,,,,,,,
,,,,,AHT_A1,2024-01-18_14h24.27.407,AHT_money_legacy,2022.2.3,Win32,59.52380952,,,,,,,,,,,,,,,,,,,,,,,,,,,,,,,,,,,,,,,,,,,,,,,,,,,,,,,,,,,,,,,,,,,,,,,,,,,,,,,,,,,,,,,,,,,,,,,,,
,,,,,AHT_A1,2024-01-18_14h24.27.407,AHT_money_legacy,2022.2.3,Win32,59.52380952,,,,,,,,,,,,,,,,,,,,,,,,,,,,,,,,,,,,,,,,,,,,,,,,,,,,,,,,,,,,,,,,,,,,,,,,,,,,,,,,,,,,,,,,,,,,,,,,,
,,,,,AHT_A1,2024-01-18_14h24.27.407,AHT_money_legacy,2022.2.3,Win32,59.52380952,,,,,,,,,,,,,,,,,,,,,,,,,,,,,,,,,,,,,,,,,,,,,,,,,,,,,,,,,,,,,,,,,,,,,,,,,,,,,,,,,,,,,,,,,,,,,,,,,
,,,,,AHT_A1,2024-01-18_14h24.27.407,AHT_money_legacy,2022.2.3,Win32,59.52380952,,,,,,,,,,,,,,,,,,,,,,,,,,,,,,,,,,,,,,,,,,,,,,,,,,,,,,,,,,,,,,,,,,,,,,,,,,,,,,,,,,,,,,,,,,,,,,,,,
,,,,,AHT_A1,2024-01-18_14h24.27.407,AHT_money_legacy,2022.2.3,Win32,59.52380952,,,,,,,,,,,,,,,,,,,,,,,,,,,,,,,,,,,,,,,,,,,,,,,,,,,,,,,,,,,,,,,,,,,,,,,,,,,,,,,,,,,,,,,,,,,,,,,,,
,,,,,AHT_A1,2024-01-18_14h24.27.407,AHT_money_legacy,2022.2.3,Win32,59.52380952,,practice1,0,0,0,0,2,1,resources/dummy3.png,CR3,,,,,,,,,,,,,,,,,,,,,,,,,,,,,,,,,,,,,,,,,,,,,,,,,,,,,,,,,,,,,,,,,,,,,,,,,,,,,,,,,,,,,,,
,,,,,AHT_A1,2024-01-18_14h24.27.407,AHT_money_legacy,2022.2.3,Win32,59.52380952,m,practice1,1,0,1,1,0,1,resources/dummy1.png,CR1,0.2525,,,,,,,,,,,,,,,,,,,,,,,,,,,,,,,,,,,,,,,,,,,,,,,,,,,,,,,,,,,,,,,,,,,,,,,,,,,,,,,,,,,,,,
,,,,,AHT_A1,2024-01-18_14h24.27.407,AHT_money_legacy,2022.2.3,Win32,59.52380952,x,practice1,1,0,2,2,1,1,resources/dummy2.png,CR2,0.3446,,,,,,,,,,,,,,,,,,,,,,,,,,,,,,,,,,,,,,,,,,,,,,,,,,,,,,,,,,,,,,,,,,,,,,,,,,,,,,,,,,,,,,
,,,,,AHT_A1,2024-01-18_14h24.27.407,AHT_money_legacy,2022.2.3,Win32,59.52380952,m,practice1,1,1,0,3,0,1,resources/dummy1.png,CR1,0.248,,,,,,,,,,,,,,,,,,,,,,,,,,,,,,,,,,,,,,,,,,,,,,,,,,,,,,,,,,,,,,,,,,,,,,,,,,,,,,,,,,,,,,
,,,,,AHT_A1,2024-01-18_14h24.27.407,AHT_money_legacy,2022.2.3,Win32,59.52380952,x,practice1,1,1,1,4,2,1,resources/dummy3.png,CR3,0.2545,,,,,,,,,,,,,,,,,,,,,,,,,,,,,,,,,,,,,,,,,,,,,,,,,,,,,,,,,,,,,,,,,,,,,,,,,,,,,,,,,,,,,,
,,,,,AHT_A1,2024-01-18_14h24.27.407,AHT_money_legacy,2022.2.3,Win32,59.52380952,m,practice1,1,1,2,5,1,1,resources/dummy2.png,CR2,0.233,,,,,,,,,,,,,,,,,,,,,,,,,,,,,,,,,,,,,,,,,,,,,,,,,,,,,,,,,,,,,,,,,,,,,,,,,,,,,,,,,,,,,,
,,,,,AHT_A1,2024-01-18_14h24.27.407,AHT_money_legacy,2022.2.3,Win32,59.52380952,,,,,,,,,,,,,,,,,,,,,,,,,,,,,,,,,,,,,,,,,,,,,,,,,,,,,,,,,,,,,,,,,,,,,,,,,,,,,,,,,,,,,,,,,,,,,,,,,
,,,,,AHT_A1,2024-01-18_14h24.27.407,AHT_money_legacy,2022.2.3,Win32,59.52380952,,,,,,,,,,,,,,,,,,,,,,,,,,,,,,,,,,,,,,,,,,,,,,,,,,,,,,,,,,,,,,,,,,,,,,,,,,,,,,,,,,,,,,,,,,,,,,,,,
,,,,,AHT_A1,2024-01-18_14h24.27.407,AHT_money_legacy,2022.2.3,Win32,59.52380952,,,,,,,,,resources/dummy1.png,CR1,,0,0,0,0,1,,,,,,,,,,,,,,,,,,,,,,,,,,,,,,,,,,,,,,,,,,,,,,,,,,,,,,,,,,,,,,,,,,,,,,,,,,,,,,,,,
,,,,,AHT_A1,2024-01-18_14h24.27.407,AHT_money_legacy,2022.2.3,Win32,59.52380952,,,,,,,,,resources/dummy3.png,CR3,,0,1,1,2,1,,,,,,,,,,,,,,,,,,,,,,,,,,,,,,,,,,,,,,,,,,,,,,,,,,,,,,,,,,,,,,,,,,,,,,,,,,,,,,,,,
,,,,,AHT_A1,2024-01-18_14h24.27.407,AHT_money_legacy,2022.2.3,Win32,59.52380952,,,,,,,,,resources/dummy2.png,CR2,,0,2,2,1,1,,,,,,,,,,,,,,,,,,,,,,,,,,,,,,,,,,,,,,,,,,,,,,,,,,,,,,,,,,,,,,,,,,,,,,,,,,,,,,,,,
,,,,,AHT_A1,2024-01-18_14h24.27.407,AHT_money_legacy,2022.2.3,Win32,59.52380952,,,,,,,,,,,,,,,,,,,,,,,,,,,,,,,,,,,,,,,,,,,,,,,,,,,,,,,,,,,,,,,,,,,,,,,,,,,,,,,,,,,,,,,,,,,,,,,,,
,,,,,AHT_A1,2024-01-18_14h24.27.407,AHT_money_legacy,2022.2.3,Win32,59.52380952,,practice2,,,,,,,resources/dummy1.png,CR1,,,,,,,0.75,0,0,0,0,1,,,,,,,,,,,,,,,,,,,,,,,,,,,,,,,,,,,,,,,,,,,,,,,,,,,,,,,,,,,,,,,,,,,,,,,,,,,
,,,,,AHT_A1,2024-01-18_14h24.27.407,AHT_money_legacy,2022.2.3,Win32,59.52380952,,practice2,,,,,,,resources/dummy3.png,CR3,,,,,,,0.75,0,1,1,2,1,,,,,,,,,,,,,,,,,,,,,,,,,,,,,,,,,,,,,,,,,,,,,,,,,,,,,,,,,,,,,,,,,,,,,,,,,,,
,,,,,AHT_A1,2024-01-18_14h24.27.407,AHT_money_legacy,2022.2.3,Win32,59.52380952,,practice2,,,,,,,resources/dummy2.png,CR2,,,,,,,0.75,0,2,2,1,1,,,,,,,,,,,,,,,,,,,,,,,,,,,,,,,,,,,,,,,,,,,,,,,,,,,,,,,,,,,,,,,,,,,,,,,,,,,
,,,,,AHT_A1,2024-01-18_14h24.27.407,AHT_money_legacy,2022.2.3,Win32,59.52380952,,practice2,,,,,,,resources/dummy2.png,CR2,,,,,,,0.75,1,0,3,1,1,,,,,,,,,,,,,,,,,,,,,,,,,,,,,,,,,,,,,,,,,,,,,,,,,,,,,,,,,,,,,,,,,,,,,,,,,,,
,,,,,AHT_A1,2024-01-18_14h24.27.407,AHT_money_legacy,2022.2.3,Win32,59.52380952,,practice2,,,,,,,resources/dummy1.png,CR1,,,,,,,0.75,1,1,4,0,1,,,,,,,,,,,,,,,,,,,,,,,,,,,,,,,,,,,,,,,,,,,,,,,,,,,,,,,,,,,,,,,,,,,,,,,,,,,
,,,,,AHT_A1,2024-01-18_14h24.27.407,AHT_money_legacy,2022.2.3,Win32,59.52380952,,practice2,,,,,,,resources/dummy3.png,CR3,,,,,,,0.75,1,2,5,2,1,,,,,,,,,,,,,,,,,,,,,,,,,,,,,,,,,,,,,,,,,,,,,,,,,,,,,,,,,,,,,,,,,,,,,,,,,,,
,,,,,AHT_A1,2024-01-18_14h24.27.407,AHT_money_legacy,2022.2.3,Win32,59.52380952,,,,,,,,,,,,,,,,,,,,,,,1,0,0,0,0,0,1,,,,,,,,,,,,,,,,,,,,,,,,,,,,,,,,,,,,,,,,,,,,,,,,,,,,,,,,,,,,,,,,,,,,
,,,,,AHT_A1,2024-01-18_14h24.27.407,AHT_money_legacy,2022.2.3,Win32,59.52380952,,practice2,,,,,,,resources/dummy2.png,CR2,,,,,,,0.85,0,0,0,1,1,,,,,,,,,,,,,,,,,,,,,,,,,,,,,,,,,,,,,,,,,,,,,,,,,,,,,,,,,,,,,,,,,,,,,,,,,,,
,,,,,AHT_A1,2024-01-18_14h24.27.407,AHT_money_legacy,2022.2.3,Win32,59.52380952,,practice2,,,,,,,resources/dummy3.png,CR3,,,,,,,0.85,0,1,1,2,1,,,,,,,,,,,,,,,,,,,,,,,,,,,,,,,,,,,,,,,,,,,,,,,,,,,,,,,,,,,,,,,,,,,,,,,,,,,
,,,,,AHT_A1,2024-01-18_14h24.27.407,AHT_money_legacy,2022.2.3,Win32,59.52380952,m,practice2,,,,,,,resources/dummy1.png,CR1,0.3258,,,,,,0.85,0,2,2,0,1,,,,,,,,,,,,,,,,,,,,,,,,,,,,,,,,,,,,,,,,,,,,,,,,,,,,,,,,,,,,,,,,,,,,,,,,,,,
,,,,,AHT_A1,2024-01-18_14h24.27.407,AHT_money_legacy,2022.2.3,Win32,59.52380952,x,practice2,,,,,,,resources/dummy2.png,CR2,0.4011,,,,,,0.85,1,0,3,1,1,,,,,,,,,,,,,,,,,,,,,,,,,,,,,,,,,,,,,,,,,,,,,,,,,,,,,,,,,,,,,,,,,,,,,,,,,,,
,,,,,AHT_A1,2024-01-18_14h24.27.407,AHT_money_legacy,2022.2.3,Win32,59.52380952,m,practice2,,,,,,,resources/dummy1.png,CR1,0.6803,,,,,,0.85,1,1,4,0,1,,,,,,,,,,,,,,,,,,,,,,,,,,,,,,,,,,,,,,,,,,,,,,,,,,,,,,,,,,,,,,,,,,,,,,,,,,,
,,,,,AHT_A1,2024-01-18_14h24.27.407,AHT_money_legacy,2022.2.3,Win32,59.52380952,m,practice2,,,,,,,resources/dummy3.png,CR3,0.6303,,,,,,0.85,1,2,5,2,1,,,,,,,,,,,,,,,,,,,,,,,,,,,,,,,,,,,,,,,,,,,,,,,,,,,,,,,,,,,,,,,,,,,,,,,,,,,
,,,,,AHT_A1,2024-01-18_14h24.27.407,AHT_money_legacy,2022.2.3,Win32,59.52380952,,,,,,,,,,,,,,,,,,,,,,,1,5,1,0,1,0,1,,,,,,,,,,,,,,,,,,,,,,,,,,,,,,,,,,,,,,,,,,,,,,,,,,,,,,,,,,,,,,,,,,,,
,,,,,AHT_A1,2024-01-18_14h24.27.407,AHT_money_legacy,2022.2.3,Win32,59.52380952,,,,,,,,,,,,,,,,,,,,,,,,,,,,,,,,,,,,,,,,,,,,,,,,,,,,,,,,,,,,,,,,,,,,,,,,,,,,,,,,,,,,,,,,,,,,,,,,,
,,,,,AHT_A1,2024-01-18_14h24.27.407,AHT_money_legacy,2022.2.3,Win32,59.52380952,,,,,,,,,,,,,,,,,,,,,,,,,,,,,,,,,,,,,,,,,,,,,,,,,,,,,,,,,,,,,,,,,,,,,,,,,,,,,,,,,,,,,,,,,,,,,,,,,
,,,,,AHT_A1,2024-01-18_14h24.27.407,AHT_money_legacy,2022.2.3,Win32,59.52380952,,,,,,,,,,,,,,,,,,,,,,,,,,,,,,0,0,0,1,1,resources/Set2B.jpg,CR2,,,,,,,,,,,,,,,,,,,,,,,,,,,,,,,,,,,,,,,,,,,,,,,,,,,,,,,,,,,,,
,,,,,AHT_A1,2024-01-18_14h24.27.407,AHT_money_legacy,2022.2.3,Win32,59.52380952,,,,,,,,,,,,,,,,,,,,,,,,,,,,,,0,1,1,0,1,resources/Set2A.jpg,CR1,,,,,,,,,,,,,,,,,,,,,,,,,,,,,,,,,,,,,,,,,,,,,,,,,,,,,,,,,,,,,
,,,,,AHT_A1,2024-01-18_14h24.27.407,AHT_money_legacy,2022.2.3,Win32,59.52380952,,,,,,,,,,,,,,,,,,,,,,,,,,,,,,0,2,2,2,1,resources/Set2C.jpg,CR3,,,,,,,,,,,,,,,,,,,,,,,,,,,,,,,,,,,,,,,,,,,,,,,,,,,,,,,,,,,,,
,,,,,AHT_A1,2024-01-18_14h24.27.407,AHT_money_legacy,2022.2.3,Win32,59.52380952,,,,,,,,,,,,,,,,,,,,,,,,,,,,,,,,,,,,,,,,,,,,,,,,,,,,,,,,,,,,,,,,,,,,,,,,,,,,,,,,,,,,,,,,,,,,,,,,,
,,,,,AHT_A1,2024-01-18_14h24.27.407,AHT_money_legacy,2022.2.3,Win32,59.52380952,,training,0,,,,,,,,,,,,,,,,,,,,,,,,,,,,,,,,resources/Set2B.jpg,CR2,m,0.4812,x,0,0,0,1,1,,,,,,,,,,,,,,,,,,,,,,,,,,,,,,,,,,,,,,,,,,,,,,,,,,,,,
,,,,,AHT_A1,2024-01-18_14h24.27.407,AHT_money_legacy,2022.2.3,Win32,59.52380952,,training,1,,,,,,,,,,,,,,,,,,,,,,,,,,,,,,,,resources/Set2B.jpg,CR2,x,0.5649,x,0,1,1,4,1,,,,,,,,,,,,,,,,,,,,,,,,,,,,,,,,,,,,,,,,,,,,,,,,,,,,,
,,,,,AHT_A1,2024-01-18_14h24.27.407,AHT_money_legacy,2022.2.3,Win32,59.52380952,,training,1,,,,,,,,,,,,,,,,,,,,,,,,,,,,,,,,resources/Set2A.jpg,CR1,m,0.4091,m,0,2,2,3,1,,,,,,,,,,,,,,,,,,,,,,,,,,,,,,,,,,,,,,,,,,,,,,,,,,,,,
,,,,,AHT_A1,2024-01-18_14h24.27.407,AHT_money_legacy,2022.2.3,Win32,59.52380952,,training,1,,,,,,,,,,,,,,,,,,,,,,,,,,,,,,,,resources/Set2C.jpg,CR3,,,safe,0,3,3,2,1,,,,,,,,,,,,,,,,,,,,,,,,,,,,,,,,,,,,,,,,,,,,,,,,,,,,,
,,,,,AHT_A1,2024-01-18_14h24.27.407,AHT_money_legacy,2022.2.3,Win32,59.52380952,,training,1,,,,,,,,,,,,,,,,,,,,,,,,,,,,,,,,resources/Set2A.jpg,CR1,m,0.5838,m,0,4,4,6,1,,,,,,,,,,,,,,,,,,,,,,,,,,,,,,,,,,,,,,,,,,,,,,,,,,,,,
,,,,,AHT_A1,2024-01-18_14h24.27.407,AHT_money_legacy,2022.2.3,Win32,59.52380952,,training,1,,,,,,,,,,,,,,,,,,,,,,,,,,,,,,,,resources/Set2C.jpg,CR3,,,safe,0,5,5,5,1,,,,,,,,,,,,,,,,,,,,,,,,,,,,,,,,,,,,,,,,,,,,,,,,,,,,,
,,,,,AHT_A1,2024-01-18_14h24.27.407,AHT_money_legacy,2022.2.3,Win32,59.52380952,,training,1,,,,,,,,,,,,,,,,,,,,,,,,,,,,,,,,resources/Set2A.jpg,CR1,m,0.4491,m,0,6,6,0,1,,,,,,,,,,,,,,,,,,,,,,,,,,,,,,,,,,,,,,,,,,,,,,,,,,,,,
,,,,,AHT_A1,2024-01-18_14h24.27.407,AHT_money_legacy,2022.2.3,Win32,59.52380952,,training,1,,,,,,,,,,,,,,,,,,,,,,,,,,,,,,,,resources/Set2C.jpg,CR3,,,safe,0,7,7,8,1,,,,,,,,,,,,,,,,,,,,,,,,,,,,,,,,,,,,,,,,,,,,,,,,,,,,,
,,,,,AHT_A1,2024-01-18_14h24.27.407,AHT_money_legacy,2022.2.3,Win32,59.52380952,,training,1,,,,,,,,,,,,,,,,,,,,,,,,,,,,,,,,resources/Set2B.jpg,CR2,x,0.4841,x,0,8,8,7,1,,,,,,,,,,,,,,,,,,,,,,,,,,,,,,,,,,,,,,,,,,,,,,,,,,,,,
,,,,,AHT_A1,2024-01-18_14h24.27.407,AHT_money_legacy,2022.2.3,Win32,59.52380952,,,,,,,,,,,,,,,,,,,,,,,,,,,,,,,,,,,,,,,,,,,,,left,0,0,0,0,1,,,,,,,,,,,,,,,,,,,,,,,,,,,,,,,,,,,,,,,,,,,,,,,
,,,,,AHT_A1,2024-01-18_14h24.27.407,AHT_money_legacy,2022.2.3,Win32,59.52380952,,training_after_deval,1,,,,,,,,,,,,,,,,,,,,,,,,,,,,,,,,resources/Set2B.jpg,CR2,,,,,,,,,,,,,,,x,0,0,0,7,1,,,,,,,,,,,,,,,,,,,,,,,,,,,,,,,,,,,,,,,,,
,,,,,AHT_A1,2024-01-18_14h24.27.407,AHT_money_legacy,2022.2.3,Win32,59.52380952,,training_after_deval,1,,,,,,,,,,,,,,,,,,,,,,,,,,,,,,,,resources/Set2A.jpg,CR1,m,0.2677,,,,,,,,,,,,,m,0,1,1,3,1,,,,,,,,,,,,,,,,,,,,,,,,,,,,,,,,,,,,,,,,,
,,,,,AHT_A1,2024-01-18_14h24.27.407,AHT_money_legacy,2022.2.3,Win32,59.52380952,,training_after_deval,1,,,,,,,,,,,,,,,,,,,,,,,,,,,,,,,,resources/Set2A.jpg,CR1,m,0.5069,,,,,,,,,,,,,m,0,2,2,6,1,,,,,,,,,,,,,,,,,,,,,,,,,,,,,,,,,,,,,,,,,
,,,,,AHT_A1,2024-01-18_14h24.27.407,AHT_money_legacy,2022.2.3,Win32,59.52380952,,training_after_deval,1,,,,,,,,,,,,,,,,,,,,,,,,,,,,,,,,resources/Set2C.jpg,CR3,,,,,,,,,,,,,,,safe,0,3,3,2,1,,,,,,,,,,,,,,,,,,,,,,,,,,,,,,,,,,,,,,,,,
,,,,,AHT_A1,2024-01-18_14h24.27.407,AHT_money_legacy,2022.2.3,Win32,59.52380952,,training_after_deval,1,,,,,,,,,,,,,,,,,,,,,,,,,,,,,,,,resources/Set2A.jpg,CR1,m,0.4356,,,,,,,,,,,,,m,0,4,4,0,1,,,,,,,,,,,,,,,,,,,,,,,,,,,,,,,,,,,,,,,,,
,,,,,AHT_A1,2024-01-18_14h24.27.407,AHT_money_legacy,2022.2.3,Win32,59.52380952,,training_after_deval,1,,,,,,,,,,,,,,,,,,,,,,,,,,,,,,,,resources/Set2C.jpg,CR3,,,,,,,,,,,,,,,safe,0,5,5,8,1,,,,,,,,,,,,,,,,,,,,,,,,,,,,,,,,,,,,,,,,,
,,,,,AHT_A1,2024-01-18_14h24.27.407,AHT_money_legacy,2022.2.3,Win32,59.52380952,,training_after_deval,0,,,,,,,,,,,,,,,,,,,,,,,,,,,,,,,,resources/Set2B.jpg,CR2,x,0.353,,,,,,,,,,,,,x,0,6,6,1,1,,,,,,,,,,,,,,,,,,,,,,,,,,,,,,,,,,,,,,,,,
,,,,,AHT_A1,2024-01-18_14h24.27.407,AHT_money_legacy,2022.2.3,Win32,59.52380952,,training_after_deval,1,,,,,,,,,,,,,,,,,,,,,,,,,,,,,,,,resources/Set2C.jpg,CR3,,,,,,,,,,,,,,,safe,0,7,7,5,1,,,,,,,,,,,,,,,,,,,,,,,,,,,,,,,,,,,,,,,,,
,,,,,AHT_A1,2024-01-18_14h24.27.407,AHT_money_legacy,2022.2.3,Win32,59.52380952,,training_after_deval,0,,,,,,,,,,,,,,,,,,,,,,,,,,,,,,,,resources/Set2B.jpg,CR2,x,0.416,,,,,,,,,,,,,x,0,8,8,4,1,,,,,,,,,,,,,,,,,,,,,,,,,,,,,,,,,,,,,,,,,
,,,,,AHT_A1,2024-01-18_14h24.27.407,AHT_money_legacy,2022.2.3,Win32,59.52380952,,,,,,,,,,,,,,,,,,,,,,,,,,,,,,,,,,,,,,,,,,,,,,,,,,,,,,,,,,,,,,,,,,,,,,,,,,,,,,,,,,,,,,,,,,,,,,,,,
,,,,,AHT_A1,2024-01-18_14h24.27.407,AHT_money_legacy,2022.2.3,Win32,59.52380952,,,,,,,,,,,,,,,,,,,,,,,,,,,,,,,,,,,,,,,,,,,,,,,,,,,,,,,,,100,9.3982,0,0,0,0,1,resources/Set2A.jpg,CR1,,,,,,,,,,,,,,,,,,,,,,,,,,,,,,,,
,,,,,AHT_A1,2024-01-18_14h24.27.407,AHT_money_legacy,2022.2.3,Win32,59.52380952,,,,,,,,,,,,,,,,,,,,,,,,,,,,,,,,,,,,,,,,,,,,,,,,,,,,,,,,,0,3.0779,0,1,1,2,1,resources/Set2C.jpg,CR3,,,,,,,,,,,,,,,,,,,,,,,,,,,,,,,,
,,,,,AHT_A1,2024-01-18_14h24.27.407,AHT_money_legacy,2022.2.3,Win32,59.52380952,,,,,,,,,,,,,,,,,,,,,,,,,,,,,,,,,,,,,,,,,,,,,,,,,,,,,,,,,100,2.3969,0,2,2,1,1,resources/Set2B.jpg,CR2,,,,,,,,,,,,,,,,,,,,,,,,,,,,,,,,
,,,,,AHT_A1,2024-01-18_14h24.27.407,AHT_money_legacy,2022.2.3,Win32,59.52380952,,real_task,1,,,,,,,,,,,,,,,,,,,,,,,,,,,,,,,,,,,,,,,,,,,,,,,,,,,,,,,,,,,,,,,,safe,0,0,0,17,1,resources/Set2C.jpg,CR3,,,,,,,,,,,,,,,,,,,,,,,
,,,,,AHT_A1,2024-01-18_14h24.27.407,AHT_money_legacy,2022.2.3,Win32,59.52380952,,real_task,1,,,,,,,,,,,,,,,,,,,,,,,,,,,,,,,,,,,,,,,,,,,,,,,,,,,,,,,,,,,,,,,x,x,0,1,1,1,1,resources/Set2B.jpg,CR2,0.7163,,,,,,,,,,,,,,,,,,,,,,
,,,,,AHT_A1,2024-01-18_14h24.27.407,AHT_money_legacy,2022.2.3,Win32,59.52380952,,real_task,1,,,,,,,,,,,,,,,,,,,,,,,,,,,,,,,,,,,,,,,,,,,,,,,,,,,,,,,,,,,,,,,x,x,0,2,2,0,1,resources/Set2B.jpg,CR2,0.4661,,,,,,,,,,,,,,,,,,,,,,
,,,,,AHT_A1,2024-01-18_14h24.27.407,AHT_money_legacy,2022.2.3,Win32,59.52380952,,real_task,1,,,,,,,,,,,,,,,,,,,,,,,,,,,,,,,,,,,,,,,,,,,,,,,,,,,,,,,,,,,,,,,,safe,0,3,3,13,1,resources/Set2C.jpg,CR3,,,,,,,,,,,,,,,,,,,,,,,
,,,,,AHT_A1,2024-01-18_14h24.27.407,AHT_money_legacy,2022.2.3,Win32,59.52380952,,real_task,1,,,,,,,,,,,,,,,,,,,,,,,,,,,,,,,,,,,,,,,,,,,,,,,,,,,,,,,,,,,,,,,m,m,0,4,4,12,1,resources/Set2A.jpg,CR1,0.3505,,,,,,,,,,,,,,,,,,,,,,
,,,,,AHT_A1,2024-01-18_14h24.27.407,AHT_money_legacy,2022.2.3,Win32,59.52380952,,real_task,1,,,,,,,,,,,,,,,,,,,,,,,,,,,,,,,,,,,,,,,,,,,,,,,,,,,,,,,,,,,,,,,,safe,0,5,5,10,1,resources/Set2C.jpg,CR3,,,,,,,,,,,,,,,,,,,,,,,
,,,,,AHT_A1,2024-01-18_14h24.27.407,AHT_money_legacy,2022.2.3,Win32,59.52380952,,real_task,1,,,,,,,,,,,,,,,,,,,,,,,,,,,,,,,,,,,,,,,,,,,,,,,,,,,,,,,,,,,,,,,x,x,0,6,6,5,1,resources/Set2B.jpg,CR2,0.498,,,,,,,,,,,,,,,,,,,,,,
,,,,,AHT_A1,2024-01-18_14h24.27.407,AHT_money_legacy,2022.2.3,Win32,59.52380952,,real_task,1,,,,,,,,,,,,,,,,,,,,,,,,,,,,,,,,,,,,,,,,,,,,,,,,,,,,,,,,,,,,,,,,safe,0,7,7,15,1,resources/Set2C.jpg,CR3,,,,,,,,,,,,,,,,,,,,,,,
,,,,,AHT_A1,2024-01-18_14h24.27.407,AHT_money_legacy,2022.2.3,Win32,59.52380952,,real_task,1,,,,,,,,,,,,,,,,,,,,,,,,,,,,,,,,,,,,,,,,,,,,,,,,,,,,,,,,,,,,,,,x,x,0,8,8,19,1,resources/Set2B.jpg,CR2,0.6256,,,,,,,,,,,,,,,,,,,,,,
,,,,,AHT_A1,2024-01-18_14h24.27.407,AHT_money_legacy,2022.2.3,Win32,59.52380952,,real_task,1,,,,,,,,,,,,,,,,,,,,,,,,,,,,,,,,,,,,,,,,,,,,,,,,,,,,,,,,,,,,,,,,safe,0,9,9,23,1,resources/Set2C.jpg,CR3,,,,,,,,,,,,,,,,,,,,,,,
,,,,,AHT_A1,2024-01-18_14h24.27.407,AHT_money_legacy,2022.2.3,Win32,59.52380952,,real_task,1,,,,,,,,,,,,,,,,,,,,,,,,,,,,,,,,,,,,,,,,,,,,,,,,,,,,,,,,,,,,,,,x,x,0,10,10,7,1,resources/Set2B.jpg,CR2,0.4049,,,,,,,,,,,,,,,,,,,,,,
,,,,,AHT_A1,2024-01-18_14h24.27.407,AHT_money_legacy,2022.2.3,Win32,59.52380952,,real_task,1,,,,,,,,,,,,,,,,,,,,,,,,,,,,,,,,,,,,,,,,,,,,,,,,,,,,,,,,,,,,,,,,safe,0,11,11,24,1,resources/Set2C.jpg,CR3,,,,,,,,,,,,,,,,,,,,,,,
,,,,,AHT_A1,2024-01-18_14h24.27.407,AHT_money_legacy,2022.2.3,Win32,59.52380952,,real_task,1,,,,,,,,,,,,,,,,,,,,,,,,,,,,,,,,,,,,,,,,,,,,,,,,,,,,,,,,,,,,,,,m,m,0,12,12,29,1,resources/Set2A.jpg,CR1,0.4844,,,,,,,,,,,,,,,,,,,,,,
,,,,,AHT_A1,2024-01-18_14h24.27.407,AHT_money_legacy,2022.2.3,Win32,59.52380952,,real_task,1,,,,,,,,,,,,,,,,,,,,,,,,,,,,,,,,,,,,,,,,,,,,,,,,,,,,,,,,,,,,,,,m,m,0,13,13,3,1,resources/Set2A.jpg,CR1,0.6489,,,,,,,,,,,,,,,,,,,,,,
,,,,,AHT_A1,2024-01-18_14h24.27.407,AHT_money_legacy,2022.2.3,Win32,59.52380952,,real_task,1,,,,,,,,,,,,,,,,,,,,,,,,,,,,,,,,,,,,,,,,,,,,,,,,,,,,,,,,,,,,,,,x,x,0,14,14,26,1,resources/Set2B.jpg,CR2,0.4501,,,,,,,,,,,,,,,,,,,,,,
,,,,,AHT_A1,2024-01-18_14h24.27.407,AHT_money_legacy,2022.2.3,Win32,59.52380952,,real_task,1,,,,,,,,,,,,,,,,,,,,,,,,,,,,,,,,,,,,,,,,,,,,,,,,,,,,,,,,,,,,,,,m,m,0,15,15,27,1,resources/Set2A.jpg,CR1,0.3979,,,,,,,,,,,,,,,,,,,,,,
,,,,,AHT_A1,2024-01-18_14h24.27.407,AHT_money_legacy,2022.2.3,Win32,59.52380952,,real_task,1,,,,,,,,,,,,,,,,,,,,,,,,,,,,,,,,,,,,,,,,,,,,,,,,,,,,,,,,,,,,,,,,safe,0,16,16,22,1,resources/Set2C.jpg,CR3,,,,,,,,,,,,,,,,,,,,,,,
,,,,,AHT_A1,2024-01-18_14h24.27.407,AHT_money_legacy,2022.2.3,Win32,59.52380952,,real_task,1,,,,,,,,,,,,,,,,,,,,,,,,,,,,,,,,,,,,,,,,,,,,,,,,,,,,,,,,,,,,,,,x,x,0,17,17,25,1,resources/Set2B.jpg,CR2,0.3631,,,,,,,,,,,,,,,,,,,,,,
,,,,,AHT_A1,2024-01-18_14h24.27.407,AHT_money_legacy,2022.2.3,Win32,59.52380952,,real_task,1,,,,,,,,,,,,,,,,,,,,,,,,,,,,,,,,,,,,,,,,,,,,,,,,,,,,,,,,,,,,,,,,safe,0,18,18,6,1,resources/Set2C.jpg,CR3,,,,,,,,,,,,,,,,,,,,,,,
,,,,,AHT_A1,2024-01-18_14h24.27.407,AHT_money_legacy,2022.2.3,Win32,59.52380952,,real_task,1,,,,,,,,,,,,,,,,,,,,,,,,,,,,,,,,,,,,,,,,,,,,,,,,,,,,,,,,,,,,,,,m,m,0,19,19,20,1,resources/Set2A.jpg,CR1,0.5246,,,,,,,,,,,,,,,,,,,,,,
,,,,,AHT_A1,2024-01-18_14h24.27.407,AHT_money_legacy,2022.2.3,Win32,59.52380952,,real_task,1,,,,,,,,,,,,,,,,,,,,,,,,,,,,,,,,,,,,,,,,,,,,,,,,,,,,,,,,,,,,,,,,safe,0,20,20,11,1,resources/Set2C.jpg,CR3,,,,,,,,,,,,,,,,,,,,,,,
,,,,,AHT_A1,2024-01-18_14h24.27.407,AHT_money_legacy,2022.2.3,Win32,59.52380952,,real_task,1,,,,,,,,,,,,,,,,,,,,,,,,,,,,,,,,,,,,,,,,,,,,,,,,,,,,,,,,,,,,,,,m,m,0,21,21,4,1,resources/Set2A.jpg,CR1,0.4161,,,,,,,,,,,,,,,,,,,,,,
,,,,,AHT_A1,2024-01-18_14h24.27.407,AHT_money_legacy,2022.2.3,Win32,59.52380952,,real_task,1,,,,,,,,,,,,,,,,,,,,,,,,,,,,,,,,,,,,,,,,,,,,,,,,,,,,,,,,,,,,,,,m,m,0,22,22,8,1,resources/Set2A.jpg,CR1,0.502,,,,,,,,,,,,,,,,,,,,,,
,,,,,AHT_A1,2024-01-18_14h24.27.407,AHT_money_legacy,2022.2.3,Win32,59.52380952,,real_task,1,,,,,,,,,,,,,,,,,,,,,,,,,,,,,,,,,,,,,,,,,,,,,,,,,,,,,,,,,,,,,,,m,m,0,23,23,21,1,resources/Set2A.jpg,CR1,0.4149,,,,,,,,,,,,,,,,,,,,,,
,,,,,AHT_A1,2024-01-18_14h24.27.407,AHT_money_legacy,2022.2.3,Win32,59.52380952,,real_task,1,,,,,,,,,,,,,,,,,,,,,,,,,,,,,,,,,,,,,,,,,,,,,,,,,,,,,,,,,,,,,,,x,x,0,24,24,2,1,resources/Set2B.jpg,CR2,0.4722,,,,,,,,,,,,,,,,,,,,,,
,,,,,AHT_A1,2024-01-18_14h24.27.407,AHT_money_legacy,2022.2.3,Win32,59.52380952,,real_task,1,,,,,,,,,,,,,,,,,,,,,,,,,,,,,,,,,,,,,,,,,,,,,,,,,,,,,,,,,,,,,,,x,x,0,25,25,9,1,resources/Set2B.jpg,CR2,0.508,,,,,,,,,,,,,,,,,,,,,,
,,,,,AHT_A1,2024-01-18_14h24.27.407,AHT_money_legacy,2022.2.3,Win32,59.52380952,,real_task,1,,,,,,,,,,,,,,,,,,,,,,,,,,,,,,,,,,,,,,,,,,,,,,,,,,,,,,,,,,,,,,,,safe,0,26,26,18,1,resources/Set2C.jpg,CR3,,,,,,,,,,,,,,,,,,,,,,,
,,,,,AHT_A1,2024-01-18_14h24.27.407,AHT_money_legacy,2022.2.3,Win32,59.52380952,,real_task,1,,,,,,,,,,,,,,,,,,,,,,,,,,,,,,,,,,,,,,,,,,,,,,,,,,,,,,,,,,,,,,,m,m,0,27,27,14,1,resources/Set2A.jpg,CR1,0.4321,,,,,,,,,,,,,,,,,,,,,,
,,,,,AHT_A1,2024-01-18_14h24.27.407,AHT_money_legacy,2022.2.3,Win32,59.52380952,,real_task,1,,,,,,,,,,,,,,,,,,,,,,,,,,,,,,,,,,,,,,,,,,,,,,,,,,,,,,,,,,,,,,,x,x,0,28,28,28,1,resources/Set2B.jpg,CR2,0.4364,,,,,,,,,,,,,,,,,,,,,,
,,,,,AHT_A1,2024-01-18_14h24.27.407,AHT_money_legacy,2022.2.3,Win32,59.52380952,,real_task,1,,,,,,,,,,,,,,,,,,,,,,,,,,,,,,,,,,,,,,,,,,,,,,,,,,,,,,,,,,,,,,,m,m,0,29,29,16,1,resources/Set2A.jpg,CR1,0.3902,,,,,,,,,,,,,,,,,,,,,,
,,,,,AHT_A1,2024-01-18_14h24.27.407,AHT_money_legacy,2022.2.3,Win32,59.52380952,,,,,,,,,,,,,,,,,,,,,,,,,,,,,,,,,,,,,,,,,,,,,,,,,,,,,,,,,0,4.2815,0,0,0,2,1,resources/Set2C.jpg,CR3,,,,,,,,,,,,,,,,,,,,,,,,,,,,,,,,
,,,,,AHT_A1,2024-01-18_14h24.27.407,AHT_money_legacy,2022.2.3,Win32,59.52380952,,,,,,,,,,,,,,,,,,,,,,,,,,,,,,,,,,,,,,,,,,,,,,,,,,,,,,,,,100,1.4237,0,1,1,1,1,resources/Set2B.jpg,CR2,,,,,,,,,,,,,,,,,,,,,,,,,,,,,,,,
,,,,,AHT_A1,2024-01-18_14h24.27.407,AHT_money_legacy,2022.2.3,Win32,59.52380952,,,,,,,,,,,,,,,,,,,,,,,,,,,,,,,,,,,,,,,,,,,,,,,,,,,,,,,,,100,1.7828,0,2,2,0,1,resources/Set2A.jpg,CR1,,,,,,,,,,,,,,,,,,,,,,,,,,,,,,,,
,,,,,AHT_A1,2024-01-18_14h24.27.407,AHT_money_legacy,2022.2.3,Win32,59.52380952,,real_task,1,,,,,,,,,,,,,,,,,,,,,,,,,,,,,,,,,,,,,,,,,,,,,,,,,,,,,,,,,,,,,,,,safe,0,0,0,11,1,resources/Set2C.jpg,CR3,,,,,,,,,,,,,,,,,,,,,,,
,,,,,AHT_A1,2024-01-18_14h24.27.407,AHT_money_legacy,2022.2.3,Win32,59.52380952,,real_task,1,,,,,,,,,,,,,,,,,,,,,,,,,,,,,,,,,,,,,,,,,,,,,,,,,,,,,,,,,,,,,,,m,m,0,1,1,3,1,resources/Set2A.jpg,CR1,0.5749,,,,,,,,,,,,,,,,,,,,,,
,,,,,AHT_A1,2024-01-18_14h24.27.407,AHT_money_legacy,2022.2.3,Win32,59.52380952,,real_task,1,,,,,,,,,,,,,,,,,,,,,,,,,,,,,,,,,,,,,,,,,,,,,,,,,,,,,,,,,,,,,,,,safe,0,2,2,24,1,resources/Set2C.jpg,CR3,,,,,,,,,,,,,,,,,,,,,,,
,,,,,AHT_A1,2024-01-18_14h24.27.407,AHT_money_legacy,2022.2.3,Win32,59.52380952,,real_task,1,,,,,,,,,,,,,,,,,,,,,,,,,,,,,,,,,,,,,,,,,,,,,,,,,,,,,,,,,,,,,,,m,m,0,3,3,20,1,resources/Set2A.jpg,CR1,0.6322,,,,,,,,,,,,,,,,,,,,,,
,,,,,AHT_A1,2024-01-18_14h24.27.407,AHT_money_legacy,2022.2.3,Win32,59.52380952,,real_task,1,,,,,,,,,,,,,,,,,,,,,,,,,,,,,,,,,,,,,,,,,,,,,,,,,,,,,,,,,,,,,,,m,m,0,4,4,14,1,resources/Set2A.jpg,CR1,0.5763,,,,,,,,,,,,,,,,,,,,,,
,,,,,AHT_A1,2024-01-18_14h24.27.407,AHT_money_legacy,2022.2.3,Win32,59.52380952,,real_task,1,,,,,,,,,,,,,,,,,,,,,,,,,,,,,,,,,,,,,,,,,,,,,,,,,,,,,,,,,,,,,,,m,m,0,5,5,12,1,resources/Set2A.jpg,CR1,0.4574,,,,,,,,,,,,,,,,,,,,,,
,,,,,AHT_A1,2024-01-18_14h24.27.407,AHT_money_legacy,2022.2.3,Win32,59.52380952,,real_task,1,,,,,,,,,,,,,,,,,,,,,,,,,,,,,,,,,,,,,,,,,,,,,,,,,,,,,,,,,,,,,,,m,m,0,6,6,16,1,resources/Set2A.jpg,CR1,0.4491,,,,,,,,,,,,,,,,,,,,,,
,,,,,AHT_A1,2024-01-18_14h24.27.407,AHT_money_legacy,2022.2.3,Win32,59.52380952,,real_task,1,,,,,,,,,,,,,,,,,,,,,,,,,,,,,,,,,,,,,,,,,,,,,,,,,,,,,,,,,,,,,,,x,x,0,7,7,7,1,resources/Set2B.jpg,CR2,0.4573,,,,,,,,,,,,,,,,,,,,,,
,,,,,AHT_A1,2024-01-18_14h24.27.407,AHT_money_legacy,2022.2.3,Win32,59.52380952,,real_task,1,,,,,,,,,,,,,,,,,,,,,,,,,,,,,,,,,,,,,,,,,,,,,,,,,,,,,,,,,,,,,,,m,m,0,8,8,21,1,resources/Set2A.jpg,CR1,0.4351,,,,,,,,,,,,,,,,,,,,,,
,,,,,AHT_A1,2024-01-18_14h24.27.407,AHT_money_legacy,2022.2.3,Win32,59.52380952,,real_task,1,,,,,,,,,,,,,,,,,,,,,,,,,,,,,,,,,,,,,,,,,,,,,,,,,,,,,,,,,,,,,,,,safe,0,9,9,18,1,resources/Set2C.jpg,CR3,,,,,,,,,,,,,,,,,,,,,,,
,,,,,AHT_A1,2024-01-18_14h24.27.407,AHT_money_legacy,2022.2.3,Win32,59.52380952,,real_task,1,,,,,,,,,,,,,,,,,,,,,,,,,,,,,,,,,,,,,,,,,,,,,,,,,,,,,,,,,,,,,,,m,m,0,10,10,29,1,resources/Set2A.jpg,CR1,0.5147,,,,,,,,,,,,,,,,,,,,,,
,,,,,AHT_A1,2024-01-18_14h24.27.407,AHT_money_legacy,2022.2.3,Win32,59.52380952,,real_task,1,,,,,,,,,,,,,,,,,,,,,,,,,,,,,,,,,,,,,,,,,,,,,,,,,,,,,,,,,,,,,,,m,m,0,11,11,8,1,resources/Set2A.jpg,CR1,0.4858,,,,,,,,,,,,,,,,,,,,,,
,,,,,AHT_A1,2024-01-18_14h24.27.407,AHT_money_legacy,2022.2.3,Win32,59.52380952,,real_task,1,,,,,,,,,,,,,,,,,,,,,,,,,,,,,,,,,,,,,,,,,,,,,,,,,,,,,,,,,,,,,,,x,x,0,12,12,2,1,resources/Set2B.jpg,CR2,0.4697,,,,,,,,,,,,,,,,,,,,,,
,,,,,AHT_A1,2024-01-18_14h24.27.407,AHT_money_legacy,2022.2.3,Win32,59.52380952,,real_task,1,,,,,,,,,,,,,,,,,,,,,,,,,,,,,,,,,,,,,,,,,,,,,,,,,,,,,,,,,,,,,,,x,x,0,13,13,26,1,resources/Set2B.jpg,CR2,0.4511,,,,,,,,,,,,,,,,,,,,,,
,,,,,AHT_A1,2024-01-18_14h24.27.407,AHT_money_legacy,2022.2.3,Win32,59.52380952,,real_task,1,,,,,,,,,,,,,,,,,,,,,,,,,,,,,,,,,,,,,,,,,,,,,,,,,,,,,,,,,,,,,,,,safe,0,14,14,23,1,resources/Set2C.jpg,CR3,,,,,,,,,,,,,,,,,,,,,,,
,,,,,AHT_A1,2024-01-18_14h24.27.407,AHT_money_legacy,2022.2.3,Win32,59.52380952,,real_task,1,,,,,,,,,,,,,,,,,,,,,,,,,,,,,,,,,,,,,,,,,,,,,,,,,,,,,,,,,,,,,,,m,m,0,15,15,27,1,resources/Set2A.jpg,CR1,0.4532,,,,,,,,,,,,,,,,,,,,,,
,,,,,AHT_A1,2024-01-18_14h24.27.407,AHT_money_legacy,2022.2.3,Win32,59.52380952,,real_task,1,,,,,,,,,,,,,,,,,,,,,,,,,,,,,,,,,,,,,,,,,,,,,,,,,,,,,,,,,,,,,,,,safe,0,16,16,15,1,resources/Set2C.jpg,CR3,,,,,,,,,,,,,,,,,,,,,,,
,,,,,AHT_A1,2024-01-18_14h24.27.407,AHT_money_legacy,2022.2.3,Win32,59.52380952,,real_task,1,,,,,,,,,,,,,,,,,,,,,,,,,,,,,,,,,,,,,,,,,,,,,,,,,,,,,,,,,,,,,,,,safe,0,17,17,22,1,resources/Set2C.jpg,CR3,,,,,,,,,,,,,,,,,,,,,,,
,,,,,AHT_A1,2024-01-18_14h24.27.407,AHT_money_legacy,2022.2.3,Win32,59.52380952,,real_task,1,,,,,,,,,,,,,,,,,,,,,,,,,,,,,,,,,,,,,,,,,,,,,,,,,,,,,,,,,,,,,,,x,x,0,18,18,28,1,resources/Set2B.jpg,CR2,0.5589,,,,,,,,,,,,,,,,,,,,,,
,,,,,AHT_A1,2024-01-18_14h24.27.407,AHT_money_legacy,2022.2.3,Win32,59.52380952,,real_task,1,,,,,,,,,,,,,,,,,,,,,,,,,,,,,,,,,,,,,,,,,,,,,,,,,,,,,,,,,,,,,,,x,x,0,19,19,19,1,resources/Set2B.jpg,CR2,0.5316,,,,,,,,,,,,,,,,,,,,,,
,,,,,AHT_A1,2024-01-18_14h24.27.407,AHT_money_legacy,2022.2.3,Win32,59.52380952,,real_task,1,,,,,,,,,,,,,,,,,,,,,,,,,,,,,,,,,,,,,,,,,,,,,,,,,,,,,,,,,,,,,,,x,x,0,20,20,0,1,resources/Set2B.jpg,CR2,0.4075,,,,,,,,,,,,,,,,,,,,,,
,,,,,AHT_A1,2024-01-18_14h24.27.407,AHT_money_legacy,2022.2.3,Win32,59.52380952,,real_task,1,,,,,,,,,,,,,,,,,,,,,,,,,,,,,,,,,,,,,,,,,,,,,,,,,,,,,,,,,,,,,,,,safe,0,21,21,17,1,resources/Set2C.jpg,CR3,,,,,,,,,,,,,,,,,,,,,,,
,,,,,AHT_A1,2024-01-18_14h24.27.407,AHT_money_legacy,2022.2.3,Win32,59.52380952,,real_task,1,,,,,,,,,,,,,,,,,,,,,,,,,,,,,,,,,,,,,,,,,,,,,,,,,,,,,,,,,,,,,,,x,x,0,22,22,5,1,resources/Set2B.jpg,CR2,0.4389,,,,,,,,,,,,,,,,,,,,,,
,,,,,AHT_A1,2024-01-18_14h24.27.407,AHT_money_legacy,2022.2.3,Win32,59.52380952,,real_task,1,,,,,,,,,,,,,,,,,,,,,,,,,,,,,,,,,,,,,,,,,,,,,,,,,,,,,,,,,,,,,,,,safe,0,23,23,13,1,resources/Set2C.jpg,CR3,,,,,,,,,,,,,,,,,,,,,,,
,,,,,AHT_A1,2024-01-18_14h24.27.407,AHT_money_legacy,2022.2.3,Win32,59.52380952,,real_task,1,,,,,,,,,,,,,,,,,,,,,,,,,,,,,,,,,,,,,,,,,,,,,,,,,,,,,,,,,,,,,,,x,x,0,24,24,9,1,resources/Set2B.jpg,CR2,0.5065,,,,,,,,,,,,,,,,,,,,,,
,,,,,AHT_A1,2024-01-18_14h24.27.407,AHT_money_legacy,2022.2.3,Win32,59.52380952,,real_task,1,,,,,,,,,,,,,,,,,,,,,,,,,,,,,,,,,,,,,,,,,,,,,,,,,,,,,,,,,,,,,,,x,x,0,25,25,25,1,resources/Set2B.jpg,CR2,0.5319,,,,,,,,,,,,,,,,,,,,,,
,,,,,AHT_A1,2024-01-18_14h24.27.407,AHT_money_legacy,2022.2.3,Win32,59.52380952,,real_task,1,,,,,,,,,,,,,,,,,,,,,,,,,,,,,,,,,,,,,,,,,,,,,,,,,,,,,,,,,,,,,,,,safe,0,26,26,6,1,resources/Set2C.jpg,CR3,,,,,,,,,,,,,,,,,,,,,,,
,,,,,AHT_A1,2024-01-18_14h24.27.407,AHT_money_legacy,2022.2.3,Win32,59.52380952,,real_task,1,,,,,,,,,,,,,,,,,,,,,,,,,,,,,,,,,,,,,,,,,,,,,,,,,,,,,,,,,,,,,,,x,x,0,27,27,1,1,resources/Set2B.jpg,CR2,0.6185,,,,,,,,,,,,,,,,,,,,,,
,,,,,AHT_A1,2024-01-18_14h24.27.407,AHT_money_legacy,2022.2.3,Win32,59.52380952,,real_task,1,,,,,,,,,,,,,,,,,,,,,,,,,,,,,,,,,,,,,,,,,,,,,,,,,,,,,,,,,,,,,,,m,m,0,28,28,4,1,resources/Set2A.jpg,CR1,0.5724,,,,,,,,,,,,,,,,,,,,,,
,,,,,AHT_A1,2024-01-18_14h24.27.407,AHT_money_legacy,2022.2.3,Win32,59.52380952,,real_task,1,,,,,,,,,,,,,,,,,,,,,,,,,,,,,,,,,,,,,,,,,,,,,,,,,,,,,,,,,,,,,,,,safe,0,29,29,10,1,resources/Set2C.jpg,CR3,,,,,,,,,,,,,,,,,,,,,,,
,,,,,AHT_A1,2024-01-18_14h24.27.407,AHT_money_legacy,2022.2.3,Win32,59.52380952,,,,,,,,,,,,,,,,,,,,,,,,,,,,,,,,,,,,,,,,,,,,,,,,,,,,,,,,,100,2.6258,0,0,0,1,1,resources/Set2B.jpg,CR2,,,,,,,,,,,,,,,,,,,,,,,,,,,,,,,,
,,,,,AHT_A1,2024-01-18_14h24.27.407,AHT_money_legacy,2022.2.3,Win32,59.52380952,,,,,,,,,,,,,,,,,,,,,,,,,,,,,,,,,,,,,,,,,,,,,,,,,,,,,,,,,100,1.2721,0,1,1,0,1,resources/Set2A.jpg,CR1,,,,,,,,,,,,,,,,,,,,,,,,,,,,,,,,
,,,,,AHT_A1,2024-01-18_14h24.27.407,AHT_money_legacy,2022.2.3,Win32,59.52380952,,,,,,,,,,,,,,,,,,,,,,,,,,,,,,,,,,,,,,,,,,,,,,,,,,,,,,,,,0,1.54,0,2,2,2,1,resources/Set2C.jpg,CR3,,,,,,,,,,,,,,,,,,,,,,,,,,,,,,,,
,,,,,AHT_A1,2024-01-18_14h24.27.407,AHT_money_legacy,2022.2.3,Win32,59.52380952,,real_task,1,,,,,,,,,,,,,,,,,,,,,,,,,,,,,,,,,,,,,,,,,,,,,,,,,,,,,,,,,,,,,,,x,x,0,0,0,7,1,resources/Set2B.jpg,CR2,0.6882,,,,,,,,,,,,,,,,,,,,,,
,,,,,AHT_A1,2024-01-18_14h24.27.407,AHT_money_legacy,2022.2.3,Win32,59.52380952,,real_task,1,,,,,,,,,,,,,,,,,,,,,,,,,,,,,,,,,,,,,,,,,,,,,,,,,,,,,,,,,,,,,,,m,m,0,1,1,20,1,resources/Set2A.jpg,CR1,0.4873,,,,,,,,,,,,,,,,,,,,,,
,,,,,AHT_A1,2024-01-18_14h24.27.407,AHT_money_legacy,2022.2.3,Win32,59.52380952,,real_task,1,,,,,,,,,,,,,,,,,,,,,,,,,,,,,,,,,,,,,,,,,,,,,,,,,,,,,,,,,,,,,,,x,x,0,2,2,2,1,resources/Set2B.jpg,CR2,0.4759,,,,,,,,,,,,,,,,,,,,,,
,,,,,AHT_A1,2024-01-18_14h24.27.407,AHT_money_legacy,2022.2.3,Win32,59.52380952,,real_task,1,,,,,,,,,,,,,,,,,,,,,,,,,,,,,,,,,,,,,,,,,,,,,,,,,,,,,,,,,,,,,,,,safe,0,3,3,24,1,resources/Set2C.jpg,CR3,,,,,,,,,,,,,,,,,,,,,,,
,,,,,AHT_A1,2024-01-18_14h24.27.407,AHT_money_legacy,2022.2.3,Win32,59.52380952,,real_task,1,,,,,,,,,,,,,,,,,,,,,,,,,,,,,,,,,,,,,,,,,,,,,,,,,,,,,,,,,,,,,,,m,m,0,4,4,12,1,resources/Set2A.jpg,CR1,0.6034,,,,,,,,,,,,,,,,,,,,,,
,,,,,AHT_A1,2024-01-18_14h24.27.407,AHT_money_legacy,2022.2.3,Win32,59.52380952,,real_task,1,,,,,,,,,,,,,,,,,,,,,,,,,,,,,,,,,,,,,,,,,,,,,,,,,,,,,,,,,,,,,,,,safe,0,5,5,23,1,resources/Set2C.jpg,CR3,,,,,,,,,,,,,,,,,,,,,,,
,,,,,AHT_A1,2024-01-18_14h24.27.407,AHT_money_legacy,2022.2.3,Win32,59.52380952,,real_task,1,,,,,,,,,,,,,,,,,,,,,,,,,,,,,,,,,,,,,,,,,,,,,,,,,,,,,,,,,,,,,,,m,m,0,6,6,21,1,resources/Set2A.jpg,CR1,0.5094,,,,,,,,,,,,,,,,,,,,,,
,,,,,AHT_A1,2024-01-18_14h24.27.407,AHT_money_legacy,2022.2.3,Win32,59.52380952,,real_task,1,,,,,,,,,,,,,,,,,,,,,,,,,,,,,,,,,,,,,,,,,,,,,,,,,,,,,,,,,,,,,,,m,m,0,7,7,4,1,resources/Set2A.jpg,CR1,0.4855,,,,,,,,,,,,,,,,,,,,,,
,,,,,AHT_A1,2024-01-18_14h24.27.407,AHT_money_legacy,2022.2.3,Win32,59.52380952,,real_task,1,,,,,,,,,,,,,,,,,,,,,,,,,,,,,,,,,,,,,,,,,,,,,,,,,,,,,,,,,,,,,,,m,m,0,8,8,14,1,resources/Set2A.jpg,CR1,0.5929,,,,,,,,,,,,,,,,,,,,,,
,,,,,AHT_A1,2024-01-18_14h24.27.407,AHT_money_legacy,2022.2.3,Win32,59.52380952,,real_task,1,,,,,,,,,,,,,,,,,,,,,,,,,,,,,,,,,,,,,,,,,,,,,,,,,,,,,,,,,,,,,,,x,x,0,9,9,25,1,resources/Set2B.jpg,CR2,0.5482,,,,,,,,,,,,,,,,,,,,,,
,,,,,AHT_A1,2024-01-18_14h24.27.407,AHT_money_legacy,2022.2.3,Win32,59.52380952,,real_task,1,,,,,,,,,,,,,,,,,,,,,,,,,,,,,,,,,,,,,,,,,,,,,,,,,,,,,,,,,,,,,,,,safe,0,10,10,15,1,resources/Set2C.jpg,CR3,,,,,,,,,,,,,,,,,,,,,,,
,,,,,AHT_A1,2024-01-18_14h24.27.407,AHT_money_legacy,2022.2.3,Win32,59.52380952,,real_task,1,,,,,,,,,,,,,,,,,,,,,,,,,,,,,,,,,,,,,,,,,,,,,,,,,,,,,,,,,,,,,,,,safe,0,11,11,10,1,resources/Set2C.jpg,CR3,,,,,,,,,,,,,,,,,,,,,,,
,,,,,AHT_A1,2024-01-18_14h24.27.407,AHT_money_legacy,2022.2.3,Win32,59.52380952,,real_task,1,,,,,,,,,,,,,,,,,,,,,,,,,,,,,,,,,,,,,,,,,,,,,,,,,,,,,,,,,,,,,,,x,x,0,12,12,28,1,resources/Set2B.jpg,CR2,0.4648,,,,,,,,,,,,,,,,,,,,,,
,,,,,AHT_A1,2024-01-18_14h24.27.407,AHT_money_legacy,2022.2.3,Win32,59.52380952,,real_task,1,,,,,,,,,,,,,,,,,,,,,,,,,,,,,,,,,,,,,,,,,,,,,,,,,,,,,,,,,,,,,,,x,x,0,13,13,5,1,resources/Set2B.jpg,CR2,0.5678,,,,,,,,,,,,,,,,,,,,,,
,,,,,AHT_A1,2024-01-18_14h24.27.407,AHT_money_legacy,2022.2.3,Win32,59.52380952,,real_task,1,,,,,,,,,,,,,,,,,,,,,,,,,,,,,,,,,,,,,,,,,,,,,,,,,,,,,,,,,,,,,,,,safe,0,14,14,13,1,resources/Set2C.jpg,CR3,,,,,,,,,,,,,,,,,,,,,,,
,,,,,AHT_A1,2024-01-18_14h24.27.407,AHT_money_legacy,2022.2.3,Win32,59.52380952,,real_task,1,,,,,,,,,,,,,,,,,,,,,,,,,,,,,,,,,,,,,,,,,,,,,,,,,,,,,,,,,,,,,,,m,m,0,15,15,29,1,resources/Set2A.jpg,CR1,0.5021,,,,,,,,,,,,,,,,,,,,,,
,,,,,AHT_A1,2024-01-18_14h24.27.407,AHT_money_legacy,2022.2.3,Win32,59.52380952,,real_task,1,,,,,,,,,,,,,,,,,,,,,,,,,,,,,,,,,,,,,,,,,,,,,,,,,,,,,,,,,,,,,,,,safe,0,16,16,11,1,resources/Set2C.jpg,CR3,,,,,,,,,,,,,,,,,,,,,,,
,,,,,AHT_A1,2024-01-18_14h24.27.407,AHT_money_legacy,2022.2.3,Win32,59.52380952,,real_task,1,,,,,,,,,,,,,,,,,,,,,,,,,,,,,,,,,,,,,,,,,,,,,,,,,,,,,,,,,,,,,,,,safe,0,17,17,22,1,resources/Set2C.jpg,CR3,,,,,,,,,,,,,,,,,,,,,,,
,,,,,AHT_A1,2024-01-18_14h24.27.407,AHT_money_legacy,2022.2.3,Win32,59.52380952,,real_task,1,,,,,,,,,,,,,,,,,,,,,,,,,,,,,,,,,,,,,,,,,,,,,,,,,,,,,,,,,,,,,,,x,x,0,18,18,0,1,resources/Set2B.jpg,CR2,0.431,,,,,,,,,,,,,,,,,,,,,,
,,,,,AHT_A1,2024-01-18_14h24.27.407,AHT_money_legacy,2022.2.3,Win32,59.52380952,,real_task,1,,,,,,,,,,,,,,,,,,,,,,,,,,,,,,,,,,,,,,,,,,,,,,,,,,,,,,,,,,,,,,,m,m,0,19,19,27,1,resources/Set2A.jpg,CR1,0.3518,,,,,,,,,,,,,,,,,,,,,,
,,,,,AHT_A1,2024-01-18_14h24.27.407,AHT_money_legacy,2022.2.3,Win32,59.52380952,,real_task,1,,,,,,,,,,,,,,,,,,,,,,,,,,,,,,,,,,,,,,,,,,,,,,,,,,,,,,,,,,,,,,,m,m,0,20,20,16,1,resources/Set2A.jpg,CR1,0.5649,,,,,,,,,,,,,,,,,,,,,,
,,,,,AHT_A1,2024-01-18_14h24.27.407,AHT_money_legacy,2022.2.3,Win32,59.52380952,,real_task,1,,,,,,,,,,,,,,,,,,,,,,,,,,,,,,,,,,,,,,,,,,,,,,,,,,,,,,,,,,,,,,,x,x,0,21,21,9,1,resources/Set2B.jpg,CR2,0.3926,,,,,,,,,,,,,,,,,,,,,,
,,,,,AHT_A1,2024-01-18_14h24.27.407,AHT_money_legacy,2022.2.3,Win32,59.52380952,,real_task,1,,,,,,,,,,,,,,,,,,,,,,,,,,,,,,,,,,,,,,,,,,,,,,,,,,,,,,,,,,,,,,,x,x,0,22,22,1,1,resources/Set2B.jpg,CR2,0.4911,,,,,,,,,,,,,,,,,,,,,,
,,,,,AHT_A1,2024-01-18_14h24.27.407,AHT_money_legacy,2022.2.3,Win32,59.52380952,,real_task,1,,,,,,,,,,,,,,,,,,,,,,,,,,,,,,,,,,,,,,,,,,,,,,,,,,,,,,,,,,,,,,,,safe,0,23,23,18,1,resources/Set2C.jpg,CR3,,,,,,,,,,,,,,,,,,,,,,,
,,,,,AHT_A1,2024-01-18_14h24.27.407,AHT_money_legacy,2022.2.3,Win32,59.52380952,,real_task,1,,,,,,,,,,,,,,,,,,,,,,,,,,,,,,,,,,,,,,,,,,,,,,,,,,,,,,,,,,,,,,,,safe,0,24,24,6,1,resources/Set2C.jpg,CR3,,,,,,,,,,,,,,,,,,,,,,,
,,,,,AHT_A1,2024-01-18_14h24.27.407,AHT_money_legacy,2022.2.3,Win32,59.52380952,,real_task,1,,,,,,,,,,,,,,,,,,,,,,,,,,,,,,,,,,,,,,,,,,,,,,,,,,,,,,,,,,,,,,,m,m,0,25,25,3,1,resources/Set2A.jpg,CR1,0.5194,,,,,,,,,,,,,,,,,,,,,,
,,,,,AHT_A1,2024-01-18_14h24.27.407,AHT_money_legacy,2022.2.3,Win32,59.52380952,,real_task,1,,,,,,,,,,,,,,,,,,,,,,,,,,,,,,,,,,,,,,,,,,,,,,,,,,,,,,,,,,,,,,,m,m,0,26,26,8,1,resources/Set2A.jpg,CR1,0.4441,,,,,,,,,,,,,,,,,,,,,,
,,,,,AHT_A1,2024-01-18_14h24.27.407,AHT_money_legacy,2022.2.3,Win32,59.52380952,,real_task,1,,,,,,,,,,,,,,,,,,,,,,,,,,,,,,,,,,,,,,,,,,,,,,,,,,,,,,,,,,,,,,,,safe,0,27,27,17,1,resources/Set2C.jpg,CR3,,,,,,,,,,,,,,,,,,,,,,,
,,,,,AHT_A1,2024-01-18_14h24.27.407,AHT_money_legacy,2022.2.3,Win32,59.52380952,,real_task,1,,,,,,,,,,,,,,,,,,,,,,,,,,,,,,,,,,,,,,,,,,,,,,,,,,,,,,,,,,,,,,,x,x,0,28,28,26,1,resources/Set2B.jpg,CR2,0.3682,,,,,,,,,,,,,,,,,,,,,,
,,,,,AHT_A1,2024-01-18_14h24.27.407,AHT_money_legacy,2022.2.3,Win32,59.52380952,,real_task,1,,,,,,,,,,,,,,,,,,,,,,,,,,,,,,,,,,,,,,,,,,,,,,,,,,,,,,,,,,,,,,,x,x,0,29,29,19,1,resources/Set2B.jpg,CR2,0.3735,,,,,,,,,,,,,,,,,,,,,,
,,,,,AHT_A1,2024-01-18_14h24.27.407,AHT_money_legacy,2022.2.3,Win32,59.52380952,,,,,,,,,,,,,,,,,,,,,,,,,,,,,,,,,,,,,,,,,,,,,,,,,,,,,,,,,,,0,0,0,1,1,resources/Set2B.jpg,CR2,,,,,,,,,,,,,,,,,,,,,,,,,,,,,,,,
,,,,,AHT_A1,2024-01-18_14h24.27.407,AHT_money_legacy,2022.2.3,Win32,59.52380952,,,,,,,,,,,,,,,,,,,,,,,,,,,,,,,,,,,,,,,,,,,,,,,,,,,,,,,,,,,0,1,1,0,1,resources/Set2A.jpg,CR1,,,,,,,,,,,,,,,,,,,,,,,,,,,,,,,,
,,,,,AHT_A1,2024-01-18_14h24.27.407,AHT_money_legacy,2022.2.3,Win32,59.52380952,,,,,,,,,,,,,,,,,,,,,,,,,,,,,,,,,,,,,,,,,,,,,,,,,,,,,,,,,0,1.0549,0,2,2,2,1,resources/Set2C.jpg,CR3,,,,,,,,,,,,,,,,,,,,,,,,,,,,,,,,
,,,,,AHT_A1,2024-01-18_14h24.27.407,AHT_money_legacy,2022.2.3,Win32,59.52380952,,real_task,1,,,,,,,,,,,,,,,,,,,,,,,,,,,,,,,,,,,,,,,,,,,,,,,,,,,,,,,,,,,,,,,x,x,0,0,0,2,1,resources/Set2B.jpg,CR2,0.5083,,,,,,,,,,,,,,,,,,,,,,
,,,,,AHT_A1,2024-01-18_14h24.27.407,AHT_money_legacy,2022.2.3,Win32,59.52380952,,real_task,1,,,,,,,,,,,,,,,,,,,,,,,,,,,,,,,,,,,,,,,,,,,,,,,,,,,,,,,,,,,,,,,m,m,0,1,1,21,1,resources/Set2A.jpg,CR1,0.4481,,,,,,,,,,,,,,,,,,,,,,
,,,,,AHT_A1,2024-01-18_14h24.27.407,AHT_money_legacy,2022.2.3,Win32,59.52380952,,real_task,1,,,,,,,,,,,,,,,,,,,,,,,,,,,,,,,,,,,,,,,,,,,,,,,,,,,,,,,,,,,,,,,,safe,0,2,2,23,1,resources/Set2C.jpg,CR3,,,,,,,,,,,,,,,,,,,,,,,
,,,,,AHT_A1,2024-01-18_14h24.27.407,AHT_money_legacy,2022.2.3,Win32,59.52380952,,real_task,1,,,,,,,,,,,,,,,,,,,,,,,,,,,,,,,,,,,,,,,,,,,,,,,,,,,,,,,,,,,,,,,x,x,0,3,3,5,1,resources/Set2B.jpg,CR2,0.3255,,,,,,,,,,,,,,,,,,,,,,
,,,,,AHT_A1,2024-01-18_14h24.27.407,AHT_money_legacy,2022.2.3,Win32,59.52380952,,real_task,1,,,,,,,,,,,,,,,,,,,,,,,,,,,,,,,,,,,,,,,,,,,,,,,,,,,,,,,,,,,,,,,x,x,0,4,4,1,1,resources/Set2B.jpg,CR2,0.4483,,,,,,,,,,,,,,,,,,,,,,
,,,,,AHT_A1,2024-01-18_14h24.27.407,AHT_money_legacy,2022.2.3,Win32,59.52380952,,real_task,1,,,,,,,,,,,,,,,,,,,,,,,,,,,,,,,,,,,,,,,,,,,,,,,,,,,,,,,,,,,,,,,x,x,0,5,5,19,1,resources/Set2B.jpg,CR2,0.3174,,,,,,,,,,,,,,,,,,,,,,
,,,,,AHT_A1,2024-01-18_14h24.27.407,AHT_money_legacy,2022.2.3,Win32,59.52380952,,real_task,1,,,,,,,,,,,,,,,,,,,,,,,,,,,,,,,,,,,,,,,,,,,,,,,,,,,,,,,,,,,,,,,m,m,0,6,6,12,1,resources/Set2A.jpg,CR1,0.4995,,,,,,,,,,,,,,,,,,,,,,
,,,,,AHT_A1,2024-01-18_14h24.27.407,AHT_money_legacy,2022.2.3,Win32,59.52380952,,real_task,1,,,,,,,,,,,,,,,,,,,,,,,,,,,,,,,,,,,,,,,,,,,,,,,,,,,,,,,,,,,,,,,,safe,0,7,7,10,1,resources/Set2C.jpg,CR3,,,,,,,,,,,,,,,,,,,,,,,
,,,,,AHT_A1,2024-01-18_14h24.27.407,AHT_money_legacy,2022.2.3,Win32,59.52380952,,real_task,1,,,,,,,,,,,,,,,,,,,,,,,,,,,,,,,,,,,,,,,,,,,,,,,,,,,,,,,,,,,,,,,m,m,0,8,8,29,1,resources/Set2A.jpg,CR1,0.3846,,,,,,,,,,,,,,,,,,,,,,
,,,,,AHT_A1,2024-01-18_14h24.27.407,AHT_money_legacy,2022.2.3,Win32,59.52380952,,real_task,1,,,,,,,,,,,,,,,,,,,,,,,,,,,,,,,,,,,,,,,,,,,,,,,,,,,,,,,,,,,,,,,m,m,0,9,9,4,1,resources/Set2A.jpg,CR1,0.4001,,,,,,,,,,,,,,,,,,,,,,
,,,,,AHT_A1,2024-01-18_14h24.27.407,AHT_money_legacy,2022.2.3,Win32,59.52380952,,real_task,1,,,,,,,,,,,,,,,,,,,,,,,,,,,,,,,,,,,,,,,,,,,,,,,,,,,,,,,,,,,,,,,m,m,0,10,10,20,1,resources/Set2A.jpg,CR1,0.3814,,,,,,,,,,,,,,,,,,,,,,
,,,,,AHT_A1,2024-01-18_14h24.27.407,AHT_money_legacy,2022.2.3,Win32,59.52380952,,real_task,1,,,,,,,,,,,,,,,,,,,,,,,,,,,,,,,,,,,,,,,,,,,,,,,,,,,,,,,,,,,,,,,,safe,0,11,11,6,1,resources/Set2C.jpg,CR3,,,,,,,,,,,,,,,,,,,,,,,
,,,,,AHT_A1,2024-01-18_14h24.27.407,AHT_money_legacy,2022.2.3,Win32,59.52380952,,real_task,1,,,,,,,,,,,,,,,,,,,,,,,,,,,,,,,,,,,,,,,,,,,,,,,,,,,,,,,,,,,,,,,,safe,0,12,12,11,1,resources/Set2C.jpg,CR3,,,,,,,,,,,,,,,,,,,,,,,
,,,,,AHT_A1,2024-01-18_14h24.27.407,AHT_money_legacy,2022.2.3,Win32,59.52380952,,real_task,1,,,,,,,,,,,,,,,,,,,,,,,,,,,,,,,,,,,,,,,,,,,,,,,,,,,,,,,,,,,,,,,m,m,0,13,13,8,1,resources/Set2A.jpg,CR1,0.3746,,,,,,,,,,,,,,,,,,,,,,
,,,,,AHT_A1,2024-01-18_14h24.27.407,AHT_money_legacy,2022.2.3,Win32,59.52380952,,real_task,1,,,,,,,,,,,,,,,,,,,,,,,,,,,,,,,,,,,,,,,,,,,,,,,,,,,,,,,,,,,,,,,x,x,0,14,14,9,1,resources/Set2B.jpg,CR2,0.3814,,,,,,,,,,,,,,,,,,,,,,
,,,,,AHT_A1,2024-01-18_14h24.27.407,AHT_money_legacy,2022.2.3,Win32,59.52380952,,real_task,1,,,,,,,,,,,,,,,,,,,,,,,,,,,,,,,,,,,,,,,,,,,,,,,,,,,,,,,,,,,,,,,x,x,0,15,15,7,1,resources/Set2B.jpg,CR2,0.3547,,,,,,,,,,,,,,,,,,,,,,
,,,,,AHT_A1,2024-01-18_14h24.27.407,AHT_money_legacy,2022.2.3,Win32,59.52380952,,real_task,1,,,,,,,,,,,,,,,,,,,,,,,,,,,,,,,,,,,,,,,,,,,,,,,,,,,,,,,,,,,,,,,m,m,0,16,16,3,1,resources/Set2A.jpg,CR1,0.4227,,,,,,,,,,,,,,,,,,,,,,
,,,,,AHT_A1,2024-01-18_14h24.27.407,AHT_money_legacy,2022.2.3,Win32,59.52380952,,real_task,1,,,,,,,,,,,,,,,,,,,,,,,,,,,,,,,,,,,,,,,,,,,,,,,,,,,,,,,,,,,,,,,m,m,0,17,17,27,1,resources/Set2A.jpg,CR1,0.4175,,,,,,,,,,,,,,,,,,,,,,
,,,,,AHT_A1,2024-01-18_14h24.27.407,AHT_money_legacy,2022.2.3,Win32,59.52380952,,real_task,1,,,,,,,,,,,,,,,,,,,,,,,,,,,,,,,,,,,,,,,,,,,,,,,,,,,,,,,,,,,,,,,,safe,0,18,18,15,1,resources/Set2C.jpg,CR3,,,,,,,,,,,,,,,,,,,,,,,
,,,,,AHT_A1,2024-01-18_14h24.27.407,AHT_money_legacy,2022.2.3,Win32,59.52380952,,real_task,1,,,,,,,,,,,,,,,,,,,,,,,,,,,,,,,,,,,,,,,,,,,,,,,,,,,,,,,,,,,,,,,,safe,0,19,19,22,1,resources/Set2C.jpg,CR3,,,,,,,,,,,,,,,,,,,,,,,
,,,,,AHT_A1,2024-01-18_14h24.27.407,AHT_money_legacy,2022.2.3,Win32,59.52380952,,real_task,1,,,,,,,,,,,,,,,,,,,,,,,,,,,,,,,,,,,,,,,,,,,,,,,,,,,,,,,,,,,,,,,,safe,0,20,20,24,1,resources/Set2C.jpg,CR3,,,,,,,,,,,,,,,,,,,,,,,
,,,,,AHT_A1,2024-01-18_14h24.27.407,AHT_money_legacy,2022.2.3,Win32,59.52380952,,real_task,1,,,,,,,,,,,,,,,,,,,,,,,,,,,,,,,,,,,,,,,,,,,,,,,,,,,,,,,,,,,,,,,,safe,0,21,21,18,1,resources/Set2C.jpg,CR3,,,,,,,,,,,,,,,,,,,,,,,
,,,,,AHT_A1,2024-01-18_14h24.27.407,AHT_money_legacy,2022.2.3,Win32,59.52380952,,real_task,1,,,,,,,,,,,,,,,,,,,,,,,,,,,,,,,,,,,,,,,,,,,,,,,,,,,,,,,,,,,,,,,x,x,0,22,22,25,1,resources/Set2B.jpg,CR2,0.39,,,,,,,,,,,,,,,,,,,,,,
,,,,,AHT_A1,2024-01-18_14h24.27.407,AHT_money_legacy,2022.2.3,Win32,59.52380952,,real_task,1,,,,,,,,,,,,,,,,,,,,,,,,,,,,,,,,,,,,,,,,,,,,,,,,,,,,,,,,,,,,,,,,safe,0,23,23,17,1,resources/Set2C.jpg,CR3,,,,,,,,,,,,,,,,,,,,,,,
,,,,,AHT_A1,2024-01-18_14h24.27.407,AHT_money_legacy,2022.2.3,Win32,59.52380952,,real_task,1,,,,,,,,,,,,,,,,,,,,,,,,,,,,,,,,,,,,,,,,,,,,,,,,,,,,,,,,,,,,,,,,safe,0,24,24,13,1,resources/Set2C.jpg,CR3,,,,,,,,,,,,,,,,,,,,,,,
,,,,,AHT_A1,2024-01-18_14h24.27.407,AHT_money_legacy,2022.2.3,Win32,59.52380952,,real_task,1,,,,,,,,,,,,,,,,,,,,,,,,,,,,,,,,,,,,,,,,,,,,,,,,,,,,,,,,,,,,,,,x,x,0,25,25,28,1,resources/Set2B.jpg,CR2,0.4217,,,,,,,,,,,,,,,,,,,,,,
,,,,,AHT_A1,2024-01-18_14h24.27.407,AHT_money_legacy,2022.2.3,Win32,59.52380952,,real_task,1,,,,,,,,,,,,,,,,,,,,,,,,,,,,,,,,,,,,,,,,,,,,,,,,,,,,,,,,,,,,,,,x,x,0,26,26,0,1,resources/Set2B.jpg,CR2,0.4256,,,,,,,,,,,,,,,,,,,,,,
,,,,,AHT_A1,2024-01-18_14h24.27.407,AHT_money_legacy,2022.2.3,Win32,59.52380952,,real_task,1,,,,,,,,,,,,,,,,,,,,,,,,,,,,,,,,,,,,,,,,,,,,,,,,,,,,,,,,,,,,,,,m,m,0,27,27,16,1,resources/Set2A.jpg,CR1,0.3504,,,,,,,,,,,,,,,,,,,,,,
,,,,,AHT_A1,2024-01-18_14h24.27.407,AHT_money_legacy,2022.2.3,Win32,59.52380952,,real_task,1,,,,,,,,,,,,,,,,,,,,,,,,,,,,,,,,,,,,,,,,,,,,,,,,,,,,,,,,,,,,,,,x,x,0,28,28,26,1,resources/Set2B.jpg,CR2,0.3487,,,,,,,,,,,,,,,,,,,,,,
,,,,,AHT_A1,2024-01-18_14h24.27.407,AHT_money_legacy,2022.2.3,Win32,59.52380952,,real_task,1,,,,,,,,,,,,,,,,,,,,,,,,,,,,,,,,,,,,,,,,,,,,,,,,,,,,,,,,,,,,,,,m,m,0,29,29,14,1,resources/Set2A.jpg,CR1,0.3717,,,,,,,,,,,,,,,,,,,,,,
,,,,,AHT_A1,2024-01-18_14h24.27.407,AHT_money_legacy,2022.2.3,Win32,59.52380952,,,,,,,,,,,,,,,,,,,,,,,,,,,,,,,,,,,,,,,,,,,,,right,,,,,,,,,,,,,,,,,,,,,,,,,,,,,,,0,0,0,0,1,,,,,,,,,,,,,,,,,
,,,,,AHT_A1,2024-01-18_14h24.27.407,AHT_money_legacy,2022.2.3,Win32,59.52380952,,real_task_after_deval,1,,,,,,,,,,,,,,,,,,,,,,,,,,,,,,,,,,,,,,,,,,,,,,,,,,,,,,,,,,,,,,,,m,,,,,,resources/Set2A.jpg,CR1,,,,,,,0,0,0,4,1,,,,,,,,,,,,
,,,,,AHT_A1,2024-01-18_14h24.27.407,AHT_money_legacy,2022.2.3,Win32,59.52380952,,real_task_after_deval,1,,,,,,,,,,,,,,,,,,,,,,,,,,,,,,,,,,,,,,,,,,,,,,,,,,,,,,,,,,,,,,,,m,,,,,,resources/Set2A.jpg,CR1,,,,,,,0,1,1,27,1,,,,,,,,,,,,
,,,,,AHT_A1,2024-01-18_14h24.27.407,AHT_money_legacy,2022.2.3,Win32,59.52380952,,real_task_after_deval,1,,,,,,,,,,,,,,,,,,,,,,,,,,,,,,,,,,,,,,,,,,,,,,,,,,,,,,,,,,,,,,,,m,,,,,,resources/Set2A.jpg,CR1,,,,,,,0,2,2,12,1,,,,,,,,,,,,
,,,,,AHT_A1,2024-01-18_14h24.27.407,AHT_money_legacy,2022.2.3,Win32,59.52380952,,real_task_after_deval,1,,,,,,,,,,,,,,,,,,,,,,,,,,,,,,,,,,,,,,,,,,,,,,,,,,,,,,,,,,,,,,,x,x,,,,,,resources/Set2B.jpg,CR2,0.3502,,,,,,0,3,3,1,1,,,,,,,,,,,,
,,,,,AHT_A1,2024-01-18_14h24.27.407,AHT_money_legacy,2022.2.3,Win32,59.52380952,,real_task_after_deval,1,,,,,,,,,,,,,,,,,,,,,,,,,,,,,,,,,,,,,,,,,,,,,,,,,,,,,,,,,,,,,,,,m,,,,,,resources/Set2A.jpg,CR1,,,,,,,0,4,4,8,1,,,,,,,,,,,,
,,,,,AHT_A1,2024-01-18_14h24.27.407,AHT_money_legacy,2022.2.3,Win32,59.52380952,,real_task_after_deval,1,,,,,,,,,,,,,,,,,,,,,,,,,,,,,,,,,,,,,,,,,,,,,,,,,,,,,,,,,,,,,,,,m,,,,,,resources/Set2A.jpg,CR1,,,,,,,0,5,5,14,1,,,,,,,,,,,,
,,,,,AHT_A1,2024-01-18_14h24.27.407,AHT_money_legacy,2022.2.3,Win32,59.52380952,,real_task_after_deval,1,,,,,,,,,,,,,,,,,,,,,,,,,,,,,,,,,,,,,,,,,,,,,,,,,,,,,,,,,,,,,,,,safe,,,,,,resources/Set2C.jpg,CR3,,,,,,,0,6,6,22,1,,,,,,,,,,,,
,,,,,AHT_A1,2024-01-18_14h24.27.407,AHT_money_legacy,2022.2.3,Win32,59.52380952,,real_task_after_deval,1,,,,,,,,,,,,,,,,,,,,,,,,,,,,,,,,,,,,,,,,,,,,,,,,,,,,,,,,,,,,,,,x,x,,,,,,resources/Set2B.jpg,CR2,0.3526,,,,,,0,7,7,0,1,,,,,,,,,,,,
,,,,,AHT_A1,2024-01-18_14h24.27.407,AHT_money_legacy,2022.2.3,Win32,59.52380952,,real_task_after_deval,1,,,,,,,,,,,,,,,,,,,,,,,,,,,,,,,,,,,,,,,,,,,,,,,,,,,,,,,,,,,,,,,,m,,,,,,resources/Set2A.jpg,CR1,,,,,,,0,8,8,3,1,,,,,,,,,,,,
,,,,,AHT_A1,2024-01-18_14h24.27.407,AHT_money_legacy,2022.2.3,Win32,59.52380952,,real_task_after_deval,1,,,,,,,,,,,,,,,,,,,,,,,,,,,,,,,,,,,,,,,,,,,,,,,,,,,,,,,,,,,,,,,,safe,,,,,,resources/Set2C.jpg,CR3,,,,,,,0,9,9,24,1,,,,,,,,,,,,
,,,,,AHT_A1,2024-01-18_14h24.27.407,AHT_money_legacy,2022.2.3,Win32,59.52380952,,real_task_after_deval,1,,,,,,,,,,,,,,,,,,,,,,,,,,,,,,,,,,,,,,,,,,,,,,,,,,,,,,,,,,,,,,,,m,,,,,,resources/Set2A.jpg,CR1,,,,,,,0,10,10,16,1,,,,,,,,,,,,
,,,,,AHT_A1,2024-01-18_14h24.27.407,AHT_money_legacy,2022.2.3,Win32,59.52380952,,real_task_after_deval,1,,,,,,,,,,,,,,,,,,,,,,,,,,,,,,,,,,,,,,,,,,,,,,,,,,,,,,,,,,,,,,,x,x,,,,,,resources/Set2B.jpg,CR2,0.4245,,,,,,0,11,11,19,1,,,,,,,,,,,,
,,,,,AHT_A1,2024-01-18_14h24.27.407,AHT_money_legacy,2022.2.3,Win32,59.52380952,,real_task_after_deval,1,,,,,,,,,,,,,,,,,,,,,,,,,,,,,,,,,,,,,,,,,,,,,,,,,,,,,,,,,,,,,,,,safe,,,,,,resources/Set2C.jpg,CR3,,,,,,,0,12,12,23,1,,,,,,,,,,,,
,,,,,AHT_A1,2024-01-18_14h24.27.407,AHT_money_legacy,2022.2.3,Win32,59.52380952,,real_task_after_deval,1,,,,,,,,,,,,,,,,,,,,,,,,,,,,,,,,,,,,,,,,,,,,,,,,,,,,,,,,,,,,,,,x,x,,,,,,resources/Set2B.jpg,CR2,0.5214,,,,,,0,13,13,2,1,,,,,,,,,,,,
,,,,,AHT_A1,2024-01-18_14h24.27.407,AHT_money_legacy,2022.2.3,Win32,59.52380952,,real_task_after_deval,1,,,,,,,,,,,,,,,,,,,,,,,,,,,,,,,,,,,,,,,,,,,,,,,,,,,,,,,,,,,,,,,,safe,,,,,,resources/Set2C.jpg,CR3,,,,,,,0,14,14,10,1,,,,,,,,,,,,
,,,,,AHT_A1,2024-01-18_14h24.27.407,AHT_money_legacy,2022.2.3,Win32,59.52380952,,real_task_after_deval,1,,,,,,,,,,,,,,,,,,,,,,,,,,,,,,,,,,,,,,,,,,,,,,,,,,,,,,,,,,,,,,,,safe,,,,,,resources/Set2C.jpg,CR3,,,,,,,0,15,15,13,1,,,,,,,,,,,,
,,,,,AHT_A1,2024-01-18_14h24.27.407,AHT_money_legacy,2022.2.3,Win32,59.52380952,,real_task_after_deval,1,,,,,,,,,,,,,,,,,,,,,,,,,,,,,,,,,,,,,,,,,,,,,,,,,,,,,,,,,,,,,,,,safe,,,,,,resources/Set2C.jpg,CR3,,,,,,,0,16,16,15,1,,,,,,,,,,,,
,,,,,AHT_A1,2024-01-18_14h24.27.407,AHT_money_legacy,2022.2.3,Win32,59.52380952,,real_task_after_deval,1,,,,,,,,,,,,,,,,,,,,,,,,,,,,,,,,,,,,,,,,,,,,,,,,,,,,,,,,,,,,,,,,safe,,,,,,resources/Set2C.jpg,CR3,,,,,,,0,17,17,6,1,,,,,,,,,,,,
,,,,,AHT_A1,2024-01-18_14h24.27.407,AHT_money_legacy,2022.2.3,Win32,59.52380952,,real_task_after_deval,1,,,,,,,,,,,,,,,,,,,,,,,,,,,,,,,,,,,,,,,,,,,,,,,,,,,,,,,,,,,,,,,x,x,,,,,,resources/Set2B.jpg,CR2,0.4695,,,,,,0,18,18,25,1,,,,,,,,,,,,
,,,,,AHT_A1,2024-01-18_14h24.27.407,AHT_money_legacy,2022.2.3,Win32,59.52380952,,real_task_after_deval,1,,,,,,,,,,,,,,,,,,,,,,,,,,,,,,,,,,,,,,,,,,,,,,,,,,,,,,,,,,,,,,,,m,,,,,,resources/Set2A.jpg,CR1,,,,,,,0,19,19,20,1,,,,,,,,,,,,
,,,,,AHT_A1,2024-01-18_14h24.27.407,AHT_money_legacy,2022.2.3,Win32,59.52380952,,real_task_after_deval,1,,,,,,,,,,,,,,,,,,,,,,,,,,,,,,,,,,,,,,,,,,,,,,,,,,,,,,,,,,,,,,,,safe,,,,,,resources/Set2C.jpg,CR3,,,,,,,0,20,20,17,1,,,,,,,,,,,,
,,,,,AHT_A1,2024-01-18_14h24.27.407,AHT_money_legacy,2022.2.3,Win32,59.52380952,,real_task_after_deval,1,,,,,,,,,,,,,,,,,,,,,,,,,,,,,,,,,,,,,,,,,,,,,,,,,,,,,,,,,,,,,,,,safe,,,,,,resources/Set2C.jpg,CR3,,,,,,,0,21,21,11,1,,,,,,,,,,,,
,,,,,AHT_A1,2024-01-18_14h24.27.407,AHT_money_legacy,2022.2.3,Win32,59.52380952,,real_task_after_deval,0,,,,,,,,,,,,,,,,,,,,,,,,,,,,,,,,,,,,,,,,,,,,,,,,,,,,,,,,,,,,,,,m,m,,,,,,resources/Set2A.jpg,CR1,0.466,,,,,,0,22,22,21,1,,,,,,,,,,,,
,,,,,AHT_A1,2024-01-18_14h24.27.407,AHT_money_legacy,2022.2.3,Win32,59.52380952,,real_task_after_deval,1,,,,,,,,,,,,,,,,,,,,,,,,,,,,,,,,,,,,,,,,,,,,,,,,,,,,,,,,,,,,,,,x,x,,,,,,resources/Set2B.jpg,CR2,0.3825,,,,,,0,23,23,7,1,,,,,,,,,,,,
,,,,,AHT_A1,2024-01-18_14h24.27.407,AHT_money_legacy,2022.2.3,Win32,59.52380952,,real_task_after_deval,0,,,,,,,,,,,,,,,,,,,,,,,,,,,,,,,,,,,,,,,,,,,,,,,,,,,,,,,,,,,,,,,m,m,,,,,,resources/Set2A.jpg,CR1,0.5828,,,,,,0,24,24,29,1,,,,,,,,,,,,
,,,,,AHT_A1,2024-01-18_14h24.27.407,AHT_money_legacy,2022.2.3,Win32,59.52380952,,real_task_after_deval,1,,,,,,,,,,,,,,,,,,,,,,,,,,,,,,,,,,,,,,,,,,,,,,,,,,,,,,,,,,,,,,,x,x,,,,,,resources/Set2B.jpg,CR2,0.4157,,,,,,0,25,25,9,1,,,,,,,,,,,,
,,,,,AHT_A1,2024-01-18_14h24.27.407,AHT_money_legacy,2022.2.3,Win32,59.52380952,,real_task_after_deval,1,,,,,,,,,,,,,,,,,,,,,,,,,,,,,,,,,,,,,,,,,,,,,,,,,,,,,,,,,,,,,,,,safe,,,,,,resources/Set2C.jpg,CR3,,,,,,,0,26,26,18,1,,,,,,,,,,,,
,,,,,AHT_A1,2024-01-18_14h24.27.407,AHT_money_legacy,2022.2.3,Win32,59.52380952,,real_task_after_deval,1,,,,,,,,,,,,,,,,,,,,,,,,,,,,,,,,,,,,,,,,,,,,,,,,,,,,,,,,,,,,,,,x,x,,,,,,resources/Set2B.jpg,CR2,0.44,,,,,,0,27,27,5,1,,,,,,,,,,,,
,,,,,AHT_A1,2024-01-18_14h24.27.407,AHT_money_legacy,2022.2.3,Win32,59.52380952,,real_task_after_deval,1,,,,,,,,,,,,,,,,,,,,,,,,,,,,,,,,,,,,,,,,,,,,,,,,,,,,,,,,,,,,,,,x,x,,,,,,resources/Set2B.jpg,CR2,0.5324,,,,,,0,28,28,28,1,,,,,,,,,,,,
,,,,,AHT_A1,2024-01-18_14h24.27.407,AHT_money_legacy,2022.2.3,Win32,59.52380952,,real_task_after_deval,1,,,,,,,,,,,,,,,,,,,,,,,,,,,,,,,,,,,,,,,,,,,,,,,,,,,,,,,,,,,,,,,x,x,,,,,,resources/Set2B.jpg,CR2,0.3663,,,,,,0,29,29,26,1,,,,,,,,,,,,
,,,,,AHT_A1,2024-01-18_14h24.27.407,AHT_money_legacy,2022.2.3,Win32,59.52380952,,,,,,,,,,,,,,,,,,,,,,,,,,,,,,,,,,,,,,,,,,,,,,,,,,,,,,,,,,,,,,,,,,,,,,,,,,,,,,,,,,,,,,,,,,,,,,,,,
,,,,,AHT_A1,2024-01-18_14h24.27.407,AHT_money_legacy,2022.2.3,Win32,59.52380952,,rating_expectancy,,,,,,,,,,,,,,,,,,,,,,,,,,,,,,,,,,,,,,,,,,,,,,,,,,,,,,,,,,,,,,resources/Set2C.jpg,CR3,,,,,,,,,,,,,,,,,,,,,0,6.6796,0,0,0,2,1,,,,,
,,,,,AHT_A1,2024-01-18_14h24.27.407,AHT_money_legacy,2022.2.3,Win32,59.52380952,,rating_expectancy,,,,,,,,,,,,,,,,,,,,,,,,,,,,,,,,,,,,,,,,,,,,,,,,,,,,,,,,,,,,,,resources/Set2B.jpg,CR2,,,,,,,,,,,,,,,,,,,,,100,4.3728,0,1,1,1,1,,,,,
,,,,,AHT_A1,2024-01-18_14h24.27.407,AHT_money_legacy,2022.2.3,Win32,59.52380952,,rating_expectancy,,,,,,,,,,,,,,,,,,,,,,,,,,,,,,,,,,,,,,,,,,,,,,,,,,,,,,,,,,,,,,resources/Set2A.jpg,CR1,,,,,,,,,,,,,,,,,,,,,,,0,2,2,0,1,,,,,
,,,,,AHT_A1,2024-01-18_14h24.27.407,AHT_money_legacy,2022.2.3,Win32,59.52380952,,rating_urge,,,,,,,,,,,,,,,,,,,,,,,,,,,,,,,,,,,,,,,,,,,,,,,,,,,,,,,,,,,,,,,,,,,,,,,,,,,,,,,,,,,,,,,,,,,resources/right_post_deval.png,,,,
,,,,,AHT_A1,2024-01-18_14h24.27.407,AHT_money_legacy,2022.2.3,Win32,59.52380952,,rating_urge_sup,,,,,,,,,,,,,,,,,,,,,,,,,,,,,,,,,,,,,,,,,,,,,,,,,,,,,,,,,,,,,,,,,,,,,,,,,,,,,,,,,,,,,,,,,,,,,,0,10.2252
,,,,,AHT_A1,2024-01-18_14h24.27.407,AHT_money_legacy,2022.2.3,Win32,59.52380952,,,,,,,,,,,,,,,,,,,,,,,,,,,,,,,,,,,,,,,,,,,,,,,,,,,,,,,,,,,,,,,,,,,,,,,,,,,,,,,,,,,,,,,,,,,,,,,,,
