participant,date,expName,psychopyVersion,OS,frameRate,payoff_list,phase,rare_transition,left_alien,left_probabilty,right_alien,right_probabilty,select_sp,show_alien,rocket_trans,rand_sp,planet,key_resp_exp.keys,key_resp_exp.rt,chosen_alien,select_alien,transmoney,rand_money,totalgold,trialgain,probs,key_resp_exp_alien.keys,key_resp_exp_alien.rt,loop_exp.thisRepN,loop_exp.thisTrialN,loop_exp.thisN,loop_exp.thisIndex,loop_exp.ran,p1,p2,p3,p4,flip_sides,static_probability_left,static_probability_right,key_resp_probe.keys,accuracy,probe_loop.thisRepN,probe_loop.thisTrialN,probe_loop.thisN,probe_loop.thisIndex,probe_loop.ran,probe_la,probe_ra,key_resp_probe.rt,key_resp.keys,key_resp.rt,slider.response,slider.rt,post_loop.thisRepN,post_loop.thisTrialN,post_loop.thisN,post_loop.thisIndex,post_loop.ran,text_up,pos_text_up,text_down,pos_img_left_up,left_up_img,right_up_img,left_down_img_1,left_down_img_2,right_down_img_1,right_down_img_2,size,show_slider
12052023ny,2023-12-05_14h04.16.198,two_step_task_legacy,2022.2.4,Win32,60.09254252,,,,,,,,,,,,,,,,,,,,,,,,,,,,,,,,,,,,,,,,,,,,,,,,,,,,,,,,,,,,,,,,,,
12052023ny,2023-12-05_14h04.16.198,two_step_task_legacy,2022.2.4,Win32,60.09254252,,,,,,,,,,,,,,,,,,,,,,,,,,,,,,,,,,,,,,,,,,,,,,,,,,,,,,,,,,,,,,,,,,
12052023ny,2023-12-05_14h04.16.198,two_step_task_legacy,2022.2.4,Win32,60.09254252,,,,,,,,,,,,,,,,,,,,,,,,,,,,,,,,,,,,,,,,,,,,,,,,,,,,,,,,,,,,,,,,,,
12052023ny,2023-12-05_14h04.16.198,two_step_task_legacy,2022.2.4,Win32,60.09254252,,,,,,,,,,,,,,,,,,,,,,,,,,,,,,,,,,,,,,,,,,,,,,,,,,,,,,,,,,,,,,,,,,
12052023ny,2023-12-05_14h04.16.198,two_step_task_legacy,2022.2.4,Win32,60.09254252,,,,,,,,,,,,,,,,,,,,,,,,,,,,,,,,,,,,,,,,,,,,,,,,,,,,,,,,,,,,,,,,,,
12052023ny,2023-12-05_14h04.16.198,two_step_task_legacy,2022.2.4,Win32,60.09254252,,,,,,,,,,,,,,,,,,,,,,,,,,,,,,,,,,,,,,,,,,,,,,,,,,,,,,,,,,,,,,,,,,
12052023ny,2023-12-05_14h04.16.198,two_step_task_legacy,2022.2.4,Win32,60.09254252,,,,,,,,,,,,,,,,,,,,,,,,,,,,,,,,,,,,,,,,,,,,,,,,,,,,,,,,,,,,,,,,,,
12052023ny,2023-12-05_14h04.16.198,two_step_task_legacy,2022.2.4,Win32,60.09254252,,,,,,,,,,,,,,,,,,,,,,,,,,,,,,,,,,,,,,,,,,,,,,,,,,,,,,,,,,,,,,,,,,
12052023ny,2023-12-05_14h04.16.198,two_step_task_legacy,2022.2.4,Win32,60.09254252,,,,,,,,,,,,,,,,,,,,,,,,,,,,,,,,,,,,,,,,,,,,,,,,,,,,,,,,,,,,,,,,,,
12052023ny,2023-12-05_14h04.16.198,two_step_task_legacy,2022.2.4,Win32,60.09254252,,,,,,,,,,,,,,,,,,,,,,,,,,,,,,,,,,,,,,,,,,,,,,,,,,,,,,,,,,,,,,,,,,
12052023ny,2023-12-05_14h04.16.198,two_step_task_legacy,2022.2.4,Win32,60.09254252,,,,,,,,,,,,,,,,,,,,,,,,,,,,,,,,,,,,,,,,,,,,,,,,,,,,,,,,,,,,,,,,,,
12052023ny,2023-12-05_14h04.16.198,two_step_task_legacy,2022.2.4,Win32,60.09254252,12,learning,1,resources/alien2_norm.png,0.405760115,resources/alien1_norm.png,0.735004267,TRUE,TRUE,3,0.776156783,red,x,2.1536,alien2,TRUE,2,0.158109728,1,1,0.405760115,x,1.3139,0,0,0,0,1,0.735004267,0.405760115,0.463481854,0.281474585,TRUE,,,,,,,,,,,,,,,,,,,,,,,,,,,,,,,,,
12052023ny,2023-12-05_14h04.16.198,two_step_task_legacy,2022.2.4,Win32,60.09254252,12,learning,0,resources/alien4_norm.png,0.277760257,resources/alien3_norm.png,0.470939609,TRUE,TRUE,2,0.447379662,purple,x,0.3831,alien3,TRUE,2,0.076312815,2,1,0.470939609,m,1.153,0,1,1,1,1,0.726648013,0.409498917,0.470939609,0.277760257,TRUE,,,,,,,,,,,,,,,,,,,,,,,,,,,,,,,,,
12052023ny,2023-12-05_14h04.16.198,two_step_task_legacy,2022.2.4,Win32,60.09254252,12,learning,0,resources/alien4_norm.png,0.270517849,resources/alien3_norm.png,0.495843388,TRUE,TRUE,2,0.274559516,purple,x,0.3768,alien3,TRUE,2,0.125371034,3,1,0.495843388,m,1.3778,0,2,2,2,1,0.735612575,0.398886568,0.495843388,0.270517849,TRUE,,,,,,,,,,,,,,,,,,,,,,,,,,,,,,,,,
12052023ny,2023-12-05_14h04.16.198,two_step_task_legacy,2022.2.4,Win32,60.09254252,12,learning,1,resources/alien1_norm.png,0.739079361,resources/alien2_norm.png,0.379898073,TRUE,TRUE,3,0.762404638,red,x,0.369099999,alien1,TRUE,2,0.670911346,4,1,0.739079361,x,1.2483,0,3,3,3,1,0.739079361,0.379898073,0.493294126,0.274263712,FALSE,,,,,,,,,,,,,,,,,,,,,,,,,,,,,,,,,
12052023ny,2023-12-05_14h04.16.198,two_step_task_legacy,2022.2.4,Win32,60.09254252,12,learning,1,resources/alien4_norm.png,0.288243949,resources/alien3_norm.png,0.530188502,TRUE,TRUE,2,0.957602932,purple,m,0.6325,alien3,TRUE,3,0.948844275,4,0,0.530188502,m,0.7195,0,4,4,4,1,0.732547828,0.358463113,0.530188502,0.288243949,TRUE,,,,,,,,,,,,,,,,,,,,,,,,,,,,,,,,,
12052023ny,2023-12-05_14h04.16.198,two_step_task_legacy,2022.2.4,Win32,60.09254252,12,learning,1,resources/alien3_norm.png,0.492907968,resources/alien4_norm.png,0.316009642,TRUE,TRUE,2,0.782575466,purple,m,0.503099999,alien3,TRUE,2,0.279970943,5,1,0.492907968,x,0.932,0,5,5,5,1,0.74071327,0.38268738,0.492907968,0.316009642,FALSE,,,,,,,,,,,,,,,,,,,,,,,,,,,,,,,,,
12052023ny,2023-12-05_14h04.16.198,two_step_task_legacy,2022.2.4,Win32,60.09254252,12,learning,0,resources/alien3_norm.png,0.454369038,resources/alien4_norm.png,0.29370718,TRUE,TRUE,2,0.545884373,purple,x,0.416400001,alien3,TRUE,2,0.207041856,6,1,0.454369038,x,0.6326,0,6,6,6,1,0.741200658,0.410091306,0.454369038,0.29370718,FALSE,,,,,,,,,,,,,,,,,,,,,,,,,,,,,,,,,
12052023ny,2023-12-05_14h04.16.198,two_step_task_legacy,2022.2.4,Win32,60.09254252,12,learning,0,resources/alien4_norm.png,0.322663367,resources/alien3_norm.png,0.436334861,TRUE,TRUE,2,0.136082364,purple,x,0.3997,alien3,TRUE,2,0.290934368,7,1,0.436334861,m,0.5997,0,7,7,7,1,0.741158735,0.397919021,0.436334861,0.322663367,TRUE,,,,,,,,,,,,,,,,,,,,,,,,,,,,,,,,,
12052023ny,2023-12-05_14h04.16.198,two_step_task_legacy,2022.2.4,Win32,60.09254252,12,learning,0,resources/alien3_norm.png,0.426368741,resources/alien4_norm.png,0.321962032,TRUE,TRUE,2,0.681226465,purple,x,0.345099999,alien3,TRUE,3,0.452313375,7,0,0.426368741,x,0.6491,0,8,8,8,1,0.722024971,0.387561009,0.426368741,0.321962032,FALSE,,,,,,,,,,,,,,,,,,,,,,,,,,,,,,,,,
12052023ny,2023-12-05_14h04.16.198,two_step_task_legacy,2022.2.4,Win32,60.09254252,12,learning,0,resources/alien2_norm.png,0.407348494,resources/alien1_norm.png,0.730172366,TRUE,TRUE,3,0.120677681,red,m,0.382900001,alien1,TRUE,2,0.079545078,8,1,0.730172366,m,0.682299999,0,9,9,9,1,0.730172366,0.407348494,0.452344181,0.30699842,TRUE,,,,,,,,,,,,,,,,,,,,,,,,,,,,,,,,,
12052023ny,2023-12-05_14h04.16.198,two_step_task_legacy,2022.2.4,Win32,60.09254252,12,learning,0,resources/alien2_norm.png,0.402942073,resources/alien1_norm.png,0.747999597,TRUE,TRUE,3,0.215581207,red,m,0.416,alien1,TRUE,3,0.87938282,8,0,0.747999597,m,0.349400001,0,10,10,10,1,0.747999597,0.402942073,0.428097866,0.253366353,TRUE,,,,,,,,,,,,,,,,,,,,,,,,,,,,,,,,,
12052023ny,2023-12-05_14h04.16.198,two_step_task_legacy,2022.2.4,Win32,60.09254252,12,learning,0,resources/alien2_norm.png,0.406383509,resources/alien1_norm.png,0.721501316,TRUE,TRUE,3,0.438507277,red,m,0.3665,alien1,TRUE,2,0.37246368,9,1,0.721501316,m,0.3708,0,11,11,11,1,0.721501316,0.406383509,0.407875273,0.285708472,TRUE,,,,,,,,,,,,,,,,,,,,,,,,,,,,,,,,,
12052023ny,2023-12-05_14h04.16.198,two_step_task_legacy,2022.2.4,Win32,60.09254252,12,learning,0,resources/alien2_norm.png,0.413377317,resources/alien1_norm.png,0.691834539,TRUE,TRUE,3,0.574223129,red,m,0.3666,alien1,TRUE,2,0.276278918,10,1,0.691834539,m,0.3224,0,12,12,12,1,0.691834539,0.413377317,0.409844896,0.300834026,TRUE,,,,,,,,,,,,,,,,,,,,,,,,,,,,,,,,,
12052023ny,2023-12-05_14h04.16.198,two_step_task_legacy,2022.2.4,Win32,60.09254252,12,learning,0,resources/alien1_norm.png,0.733698146,resources/alien2_norm.png,0.41342159,TRUE,TRUE,3,0.231655113,red,m,0.250099999,alien1,TRUE,2,0.469016674,11,1,0.733698146,x,0.732400001,0,13,13,13,1,0.733698146,0.41342159,0.387071895,0.332412063,FALSE,,,,,,,,,,,,,,,,,,,,,,,,,,,,,,,,,
12052023ny,2023-12-05_14h04.16.198,two_step_task_legacy,2022.2.4,Win32,60.09254252,12,learning,1,resources/alien3_norm.png,0.328671282,resources/alien4_norm.png,0.292973976,TRUE,TRUE,2,0.747882245,purple,m,0.2692,alien3,TRUE,3,0.691750343,11,0,0.328671282,x,0.8145,0,14,14,14,1,0.698813213,0.403346101,0.328671282,0.292973976,FALSE,,,,,,,,,,,,,,,,,,,,,,,,,,,,,,,,,
12052023ny,2023-12-05_14h04.16.198,two_step_task_legacy,2022.2.4,Win32,60.09254252,12,learning,0,resources/alien1_norm.png,0.673597567,resources/alien2_norm.png,0.40250225,TRUE,TRUE,3,0.437146948,red,m,0.649299999,alien1,TRUE,3,0.944396279,11,0,0.673597567,x,0.7985,0,15,15,15,1,0.673597567,0.40250225,0.342113757,0.33043911,FALSE,,,,,,,,,,,,,,,,,,,,,,,,,,,,,,,,,
12052023ny,2023-12-05_14h04.16.198,two_step_task_legacy,2022.2.4,Win32,60.09254252,12,learning,0,resources/alien4_norm.png,0.338837976,resources/alien3_norm.png,0.346400472,TRUE,TRUE,2,0.484357702,purple,x,0.333,alien4,TRUE,2,0.102979846,12,1,0.338837976,x,0.735299999,0,16,16,16,1,0.680184118,0.424573709,0.346400472,0.338837976,TRUE,,,,,,,,,,,,,,,,,,,,,,,,,,,,,,,,,
12052023ny,2023-12-05_14h04.16.198,two_step_task_legacy,2022.2.4,Win32,60.09254252,12,learning,0,resources/alien3_norm.png,0.33217653,resources/alien4_norm.png,0.308440183,TRUE,TRUE,2,0.218569319,purple,x,0.3165,alien4,TRUE,2,0.127031571,13,1,0.308440183,m,0.6157,0,17,17,17,1,0.695581347,0.425223256,0.33217653,0.308440183,FALSE,,,,,,,,,,,,,,,,,,,,,,,,,,,,,,,,,
12052023ny,2023-12-05_14h04.16.198,two_step_task_legacy,2022.2.4,Win32,60.09254252,12,learning,1,resources/alien2_norm.png,0.395443845,resources/alien1_norm.png,0.665279829,TRUE,TRUE,3,0.94008242,red,x,0.252799999,alien2,TRUE,3,0.809267655,13,0,0.395443845,x,0.6995,0,18,18,18,1,0.665279829,0.395443845,0.385355991,0.307336406,TRUE,,,,,,,,,,,,,,,,,,,,,,,,,,,,,,,,,
12052023ny,2023-12-05_14h04.16.198,two_step_task_legacy,2022.2.4,Win32,60.09254252,12,learning,0,resources/alien3_norm.png,0.401923143,resources/alien4_norm.png,0.290351741,TRUE,TRUE,2,0.030970361,purple,x,0.3331,alien4,TRUE,2,0.233320469,14,1,0.290351741,m,0.5657,0,19,19,19,1,0.661411279,0.435220861,0.401923143,0.290351741,FALSE,,,,,,,,,,,,,,,,,,,,,,,,,,,,,,,,,
12052023ny,2023-12-05_14h04.16.198,two_step_task_legacy,2022.2.4,Win32,60.09254252,12,learning,0,resources/alien4_norm.png,0.271196954,resources/alien3_norm.png,0.398249836,TRUE,TRUE,2,0.418644231,purple,x,0.2679,alien4,TRUE,3,0.80255635,14,0,0.271196954,x,0.532599999,0,20,20,20,1,0.661949138,0.410912611,0.398249836,0.271196954,TRUE,,,,,,,,,,,,,,,,,,,,,,,,,,,,,,,,,
12052023ny,2023-12-05_14h04.16.198,two_step_task_legacy,2022.2.4,Win32,60.09254252,12,learning,0,resources/alien3_norm.png,0.415225809,resources/alien4_norm.png,0.252366339,TRUE,TRUE,2,0.401689858,purple,x,0.249400001,alien4,TRUE,3,0.632135396,14,0,0.252366339,m,0.5036,0,21,21,21,1,0.654233993,0.43410913,0.415225809,0.252366339,FALSE,,,,,,,,,,,,,,,,,,,,,,,,,,,,,,,,,
12052023ny,2023-12-05_14h04.16.198,two_step_task_legacy,2022.2.4,Win32,60.09254252,12,learning,0,resources/alien1_norm.png,0.67678513,resources/alien2_norm.png,0.388227855,TRUE,TRUE,3,0.187847133,red,m,0.3665,alien2,TRUE,2,0.201226787,15,1,0.388227855,m,0.9649,0,22,22,22,1,0.67678513,0.388227855,0.452186207,0.287515569,FALSE,,,,,,,,,,,,,,,,,,,,,,,,,,,,,,,,,
12052023ny,2023-12-05_14h04.16.198,two_step_task_legacy,2022.2.4,Win32,60.09254252,12,learning,0,resources/alien1_norm.png,0.659885743,resources/alien2_norm.png,0.389511366,TRUE,TRUE,3,0.478063163,red,m,0.287,alien2,TRUE,3,0.67425214,15,0,0.389511366,m,0.532599999,0,23,23,23,1,0.659885743,0.389511366,0.461093342,0.271854671,FALSE,,,,,,,,,,,,,,,,,,,,,,,,,,,,,,,,,
12052023ny,2023-12-05_14h04.16.198,two_step_task_legacy,2022.2.4,Win32,60.09254252,12,learning,0,resources/alien1_norm.png,0.666068018,resources/alien2_norm.png,0.398800031,TRUE,TRUE,3,0.13861918,red,m,0.2506,alien2,TRUE,2,0.013488716,16,1,0.398800031,m,0.433,0,24,24,24,1,0.666068018,0.398800031,0.449009712,0.265652547,FALSE,,,,,,,,,,,,,,,,,,,,,,,,,,,,,,,,,
12052023ny,2023-12-05_14h04.16.198,two_step_task_legacy,2022.2.4,Win32,60.09254252,12,learning,0,resources/alien1_norm.png,0.693855048,resources/alien2_norm.png,0.413573954,TRUE,TRUE,3,0.631499112,red,m,0.267299999,alien2,TRUE,3,0.634191156,16,0,0.413573954,m,0.383099999,0,25,25,25,1,0.693855048,0.413573954,0.452565344,0.25034404,FALSE,,,,,,,,,,,,,,,,,,,,,,,,,,,,,,,,,
12052023ny,2023-12-05_14h04.16.198,two_step_task_legacy,2022.2.4,Win32,60.09254252,12,learning,1,resources/alien2_norm.png,0.433242785,resources/alien1_norm.png,0.665387551,TRUE,TRUE,3,0.993894218,red,x,0.8328,alien1,TRUE,3,0.974759537,16,0,0.665387551,m,1.2868,0,26,26,26,1,0.665387551,0.433242785,0.440419535,0.257320124,TRUE,,,,,,,,,,,,,,,,,,,,,,,,,,,,,,,,,
12052023ny,2023-12-05_14h04.16.198,two_step_task_legacy,2022.2.4,Win32,60.09254252,12,learning,1,resources/alien1_norm.png,0.636497297,resources/alien2_norm.png,0.448773815,TRUE,TRUE,3,0.71590408,red,x,0.5836,alien2,TRUE,2,0.347731601,17,1,0.448773815,m,0.954700001,0,27,27,27,1,0.636497297,0.448773815,0.415619749,0.254034703,FALSE,,,,,,,,,,,,,,,,,,,,,,,,,,,,,,,,,
12052023ny,2023-12-05_14h04.16.198,two_step_task_legacy,2022.2.4,Win32,60.09254252,12,learning,0,resources/alien4_norm.png,0.268687372,resources/alien3_norm.png,0.383697745,TRUE,TRUE,2,0.456592036,purple,x,0.2667,alien4,TRUE,2,0.146739606,18,1,0.268687372,x,1.281099999,0,28,28,28,1,0.638994832,0.429405459,0.383697745,0.268687372,TRUE,,,,,,,,,,,,,,,,,,,,,,,,,,,,,,,,,
12052023ny,2023-12-05_14h04.16.198,two_step_task_legacy,2022.2.4,Win32,60.09254252,12,learning,1,resources/alien2_norm.png,0.410940076,resources/alien1_norm.png,0.578130636,TRUE,TRUE,3,0.803294255,red,x,0.4325,alien2,TRUE,3,0.864316369,18,0,0.410940076,x,1.0815,0,29,29,29,1,0.578130636,0.410940076,0.385779103,0.269139552,TRUE,,,,,,,,,,,,,,,,,,,,,,,,,,,,,,,,,
12052023ny,2023-12-05_14h04.16.198,two_step_task_legacy,2022.2.4,Win32,60.09254252,12,learning,1,resources/alien3_norm.png,0.457376883,resources/alien4_norm.png,0.274735338,TRUE,TRUE,2,0.91600692,purple,m,0.2335,alien4,TRUE,3,0.327185201,18,0,0.274735338,m,0.577400001,0,30,30,30,1,0.547015321,0.431141489,0.457376883,0.274735338,FALSE,,,,,,,,,,,,,,,,,,,,,,,,,,,,,,,,,
12052023ny,2023-12-05_14h04.16.198,two_step_task_legacy,2022.2.4,Win32,60.09254252,12,learning,0,resources/alien2_norm.png,0.476757946,resources/alien1_norm.png,0.489685474,TRUE,TRUE,3,0.079733095,red,m,0.283299999,alien1,TRUE,3,0.930082594,18,0,0.489685474,m,0.9986,0,31,31,31,1,0.489685474,0.476757946,0.460317929,0.260113935,TRUE,,,,,,,,,,,,,,,,,,,,,,,,,,,,,,,,,
12052023ny,2023-12-05_14h04.16.198,two_step_task_legacy,2022.2.4,Win32,60.09254252,12,learning,0,resources/alien2_norm.png,0.47271727,resources/alien1_norm.png,0.536848324,TRUE,TRUE,3,0.295924361,red,m,0.216799999,alien2,TRUE,3,0.853502333,18,0,0.47271727,x,0.666,0,32,32,32,1,0.536848324,0.47271727,0.462294434,0.27332593,TRUE,,,,,,,,,,,,,,,,,,,,,,,,,,,,,,,,,
12052023ny,2023-12-05_14h04.16.198,two_step_task_legacy,2022.2.4,Win32,60.09254252,12,learning,1,resources/alien2_norm.png,0.483591319,resources/alien1_norm.png,0.551396021,TRUE,TRUE,3,0.7084948,red,x,0.184,alien2,TRUE,2,0.372144126,19,1,0.483591319,x,0.8487,0,33,33,33,1,0.551396021,0.483591319,0.506024589,0.282754269,TRUE,,,,,,,,,,,,,,,,,,,,,,,,,,,,,,,,,
12052023ny,2023-12-05_14h04.16.198,two_step_task_legacy,2022.2.4,Win32,60.09254252,12,learning,0,resources/alien4_norm.png,0.269186602,resources/alien3_norm.png,0.457029769,TRUE,TRUE,2,0.584663689,purple,x,0.219799999,alien3,TRUE,3,0.918620244,19,0,0.457029769,m,1.0199,0,34,34,34,1,0.512254452,0.470837367,0.457029769,0.269186602,TRUE,,,,,,,,,,,,,,,,,,,,,,,,,,,,,,,,,
12052023ny,2023-12-05_14h04.16.198,two_step_task_legacy,2022.2.4,Win32,60.09254252,12,learning,0,resources/alien4_norm.png,0.265710056,resources/alien3_norm.png,0.447420114,TRUE,TRUE,2,0.234724433,purple,x,0.216900001,alien3,TRUE,3,0.522493163,19,0,0.447420114,m,0.6993,0,35,35,35,1,0.491662308,0.465775001,0.447420114,0.265710056,TRUE,,,,,,,,,,,,,,,,,,,,,,,,,,,,,,,,,
12052023ny,2023-12-05_14h04.16.198,two_step_task_legacy,2022.2.4,Win32,60.09254252,12,learning,0,resources/alien3_norm.png,0.428082592,resources/alien4_norm.png,0.25827737,TRUE,TRUE,2,0.127362442,purple,x,0.2335,alien4,TRUE,3,0.482255801,19,0,0.25827737,m,0.6711,0,36,36,36,1,0.493384941,0.411646758,0.428082592,0.25827737,FALSE,,,,,,,,,,,,,,,,,,,,,,,,,,,,,,,,,
12052023ny,2023-12-05_14h04.16.198,two_step_task_legacy,2022.2.4,Win32,60.09254252,12,learning,0,resources/alien2_norm.png,0.429699634,resources/alien1_norm.png,0.493769778,TRUE,TRUE,3,0.397043972,red,m,0.465299999,alien2,TRUE,2,0.393791732,20,1,0.429699634,x,0.615599999,0,37,37,37,1,0.493769778,0.429699634,0.373204395,0.27590428,TRUE,,,,,,,,,,,,,,,,,,,,,,,,,,,,,,,,,
12052023ny,2023-12-05_14h04.16.198,two_step_task_legacy,2022.2.4,Win32,60.09254252,12,learning,0,resources/alien2_norm.png,0.413411606,resources/alien1_norm.png,0.466597382,TRUE,TRUE,3,0.696535432,red,m,0.2834,alien2,TRUE,2,0.360725944,21,1,0.413411606,x,0.4664,0,38,38,38,1,0.466597382,0.413411606,0.347691188,0.280094663,TRUE,,,,,,,,,,,,,,,,,,,,,,,,,,,,,,,,,
12052023ny,2023-12-05_14h04.16.198,two_step_task_legacy,2022.2.4,Win32,60.09254252,12,learning,0,resources/alien2_norm.png,0.411869078,resources/alien1_norm.png,0.505923327,TRUE,TRUE,3,0.547227667,red,m,0.25,alien2,TRUE,3,0.499651156,21,0,0.411869078,x,0.5659,0,39,39,39,1,0.505923327,0.411869078,0.322095757,0.339573972,TRUE,,,,,,,,,,,,,,,,,,,,,,,,,,,,,,,,,
12052023ny,2023-12-05_14h04.16.198,two_step_task_legacy,2022.2.4,Win32,60.09254252,12,learning,0,resources/alien1_norm.png,0.516666368,resources/alien2_norm.png,0.417303574,TRUE,TRUE,3,0.101232876,red,m,0.2666,alien2,TRUE,3,0.98202367,21,0,0.417303574,m,0.5825,0,40,40,40,1,0.516666368,0.417303574,0.322962358,0.358756435,FALSE,,,,,,,,,,,,,,,,,,,,,,,,,,,,,,,,,
12052023ny,2023-12-05_14h04.16.198,two_step_task_legacy,2022.2.4,Win32,60.09254252,12,learning,0,resources/alien2_norm.png,0.444104911,resources/alien1_norm.png,0.550750768,TRUE,TRUE,3,0.181855893,red,m,0.2385,alien1,TRUE,2,0.539619014,22,1,0.550750768,m,0.5987,0,41,41,41,1,0.550750768,0.444104911,0.294911851,0.357938031,TRUE,,,,,,,,,,,,,,,,,,,,,,,,,,,,,,,,,
12052023ny,2023-12-05_14h04.16.198,two_step_task_legacy,2022.2.4,Win32,60.09254252,12,learning,1,resources/alien3_norm.png,0.308104121,resources/alien4_norm.png,0.339040206,TRUE,TRUE,2,0.939905921,purple,m,0.2332,alien4,TRUE,3,0.384368074,22,0,0.339040206,m,1.2138,0,42,42,42,1,0.525571539,0.485191645,0.308104121,0.339040206,FALSE,,,,,,,,,,,,,,,,,,,,,,,,,,,,,,,,,
12052023ny,2023-12-05_14h04.16.198,two_step_task_legacy,2022.2.4,Win32,60.09254252,12,learning,1,resources/alien3_norm.png,0.326958644,resources/alien4_norm.png,0.333505879,TRUE,TRUE,2,0.720891019,purple,m,0.2536,alien3,TRUE,3,0.77124156,22,0,0.326958644,x,0.9315,0,43,43,43,1,0.50426409,0.481454084,0.326958644,0.333505879,FALSE,,,,,,,,,,,,,,,,,,,,,,,,,,,,,,,,,
12052023ny,2023-12-05_14h04.16.198,two_step_task_legacy,2022.2.4,Win32,60.09254252,12,learning,0,resources/alien2_norm.png,0.499315814,resources/alien1_norm.png,0.481265357,TRUE,TRUE,3,0.561444157,red,m,0.2512,alien1,TRUE,2,0.373930703,23,1,0.481265357,m,1.0503,0,44,44,44,1,0.481265357,0.499315814,0.356507974,0.323735934,TRUE,,,,,,,,,,,,,,,,,,,,,,,,,,,,,,,,,
12052023ny,2023-12-05_14h04.16.198,two_step_task_legacy,2022.2.4,Win32,60.09254252,12,learning,0,resources/alien1_norm.png,0.522309201,resources/alien2_norm.png,0.536711439,TRUE,TRUE,3,0.005758621,red,m,0.233400001,alien1,TRUE,2,0.08404628,24,1,0.522309201,x,0.4841,0,45,45,45,1,0.522309201,0.536711439,0.357876875,0.290739862,FALSE,,,,,,,,,,,,,,,,,,,,,,,,,,,,,,,,,
12052023ny,2023-12-05_14h04.16.198,two_step_task_legacy,2022.2.4,Win32,60.09254252,12,learning,0,resources/alien1_norm.png,0.496462145,resources/alien2_norm.png,0.50305264,TRUE,TRUE,3,0.67956492,red,m,0.2323,alien1,TRUE,3,0.826962998,24,0,0.496462145,x,0.421799999,0,46,46,46,1,0.496462145,0.50305264,0.360329221,0.278991374,FALSE,,,,,,,,,,,,,,,,,,,,,,,,,,,,,,,,,
12052023ny,2023-12-05_14h04.16.198,two_step_task_legacy,2022.2.4,Win32,60.09254252,12,learning,0,resources/alien2_norm.png,0.485086755,resources/alien1_norm.png,0.493644531,TRUE,TRUE,3,0.291727806,red,m,0.2332,alien1,TRUE,3,0.998010921,24,0,0.493644531,m,0.3665,0,47,47,47,1,0.493644531,0.485086755,0.343718868,0.305174823,TRUE,,,,,,,,,,,,,,,,,,,,,,,,,,,,,,,,,
12052023ny,2023-12-05_14h04.16.198,two_step_task_legacy,2022.2.4,Win32,60.09254252,12,learning,1,resources/alien2_norm.png,0.483205309,resources/alien1_norm.png,0.491945355,TRUE,TRUE,3,0.714597346,red,x,0.366599999,alien1,TRUE,2,0.464473635,25,1,0.491945355,m,0.781900001,0,48,48,48,1,0.491945355,0.483205309,0.345401109,0.31787677,TRUE,,,,,,,,,,,,,,,,,,,,,,,,,,,,,,,,,
12052023ny,2023-12-05_14h04.16.198,two_step_task_legacy,2022.2.4,Win32,60.09254252,12,learning,0,resources/alien3_norm.png,0.373728587,resources/alien4_norm.png,0.277022005,TRUE,TRUE,2,0.127895817,purple,x,0.2502,alien3,TRUE,3,0.810583782,25,0,0.373728587,x,0.8986,0,49,49,49,1,0.517740593,0.502991622,0.373728587,0.277022005,FALSE,,,,,,,,,,,,,,,,,,,,,,,,,,,,,,,,,
12052023ny,2023-12-05_14h04.16.198,two_step_task_legacy,2022.2.4,Win32,60.09254252,12,learning,0,resources/alien4_norm.png,0.270042045,resources/alien3_norm.png,0.348397501,TRUE,TRUE,2,0.175994606,purple,x,0.249900001,alien4,TRUE,3,0.446506091,25,0,0.270042045,x,0.6839,0,50,50,50,1,0.520150615,0.50684998,0.348397501,0.270042045,TRUE,,,,,,,,,,,,,,,,,,,,,,,,,,,,,,,,,
12052023ny,2023-12-05_14h04.16.198,two_step_task_legacy,2022.2.4,Win32,60.09254252,12,learning,0,resources/alien1_norm.png,0.5351946,resources/alien2_norm.png,0.526013812,TRUE,TRUE,3,0.318108804,red,m,0.266599999,alien1,TRUE,3,0.978683573,25,0,0.5351946,x,0.5823,0,51,51,51,1,0.5351946,0.526013812,0.402425342,0.255023094,FALSE,,,,,,,,,,,,,,,,,,,,,,,,,,,,,,,,,
12052023ny,2023-12-05_14h04.16.198,two_step_task_legacy,2022.2.4,Win32,60.09254252,12,learning,1,resources/alien3_norm.png,0.405415746,resources/alien4_norm.png,0.287660245,TRUE,TRUE,2,0.998809615,purple,m,0.251900001,alien3,TRUE,3,0.867758734,25,0,0.405415746,x,1.0666,0,52,52,52,1,0.566527291,0.531253596,0.405415746,0.287660245,FALSE,,,,,,,,,,,,,,,,,,,,,,,,,,,,,,,,,
12052023ny,2023-12-05_14h04.16.198,two_step_task_legacy,2022.2.4,Win32,60.09254252,12,learning,0,resources/alien1_norm.png,0.573303228,resources/alien2_norm.png,0.504003796,TRUE,TRUE,3,0.136668803,red,m,0.283299999,alien2,TRUE,3,0.824884437,25,0,0.504003796,m,0.583599999,0,53,53,53,1,0.573303228,0.504003796,0.38709589,0.304407373,FALSE,,,,,,,,,,,,,,,,,,,,,,,,,,,,,,,,,
12052023ny,2023-12-05_14h04.16.198,two_step_task_legacy,2022.2.4,Win32,60.09254252,12,learning,0,resources/alien1_norm.png,0.600344675,resources/alien2_norm.png,0.525650001,TRUE,TRUE,3,0.287124958,red,m,0.2332,alien1,TRUE,3,0.800212781,25,0,0.600344675,x,0.483,0,54,54,54,1,0.600344675,0.525650001,0.383678743,0.316597135,FALSE,,,,,,,,,,,,,,,,,,,,,,,,,,,,,,,,,
12052023ny,2023-12-05_14h04.16.198,two_step_task_legacy,2022.2.4,Win32,60.09254252,12,learning,0,resources/alien2_norm.png,0.507899843,resources/alien1_norm.png,0.595996806,TRUE,TRUE,3,0.028149546,red,m,0.2552,alien2,TRUE,3,0.541362435,25,0,0.507899843,x,0.499,0,55,55,55,1,0.595996806,0.507899843,0.36987251,0.257280936,TRUE,,,,,,,,,,,,,,,,,,,,,,,,,,,,,,,,,
12052023ny,2023-12-05_14h04.16.198,two_step_task_legacy,2022.2.4,Win32,60.09254252,12,learning,0,resources/alien1_norm.png,0.582664231,resources/alien2_norm.png,0.449466026,TRUE,TRUE,3,0.375127903,red,m,0.253,alien1,TRUE,2,0.090467333,26,1,0.582664231,x,0.449599999,0,56,56,56,1,0.582664231,0.449466026,0.407284747,0.271589073,FALSE,,,,,,,,,,,,,,,,,,,,,,,,,,,,,,,,,
12052023ny,2023-12-05_14h04.16.198,two_step_task_legacy,2022.2.4,Win32,60.09254252,12,learning,0,resources/alien1_norm.png,0.538753325,resources/alien2_norm.png,0.438069661,TRUE,TRUE,3,0.413430228,red,m,0.2532,alien1,TRUE,2,0.420439492,27,1,0.538753325,x,0.3828,0,57,57,57,1,0.538753325,0.438069661,0.421476831,0.259809431,FALSE,,,,,,,,,,,,,,,,,,,,,,,,,,,,,,,,,
12052023ny,2023-12-05_14h04.16.198,two_step_task_legacy,2022.2.4,Win32,60.09254252,12,learning,0,resources/alien1_norm.png,0.542473982,resources/alien2_norm.png,0.419697183,TRUE,TRUE,3,0.109241736,red,m,0.266599999,alien1,TRUE,2,0.429810657,28,1,0.542473982,x,0.334099999,0,58,58,58,1,0.542473982,0.419697183,0.440081302,0.268303514,FALSE,,,,,,,,,,,,,,,,,,,,,,,,,,,,,,,,,
12052023ny,2023-12-05_14h04.16.198,two_step_task_legacy,2022.2.4,Win32,60.09254252,12,learning,1,resources/alien4_norm.png,0.280957594,resources/alien3_norm.png,0.498884326,TRUE,TRUE,2,0.82827659,purple,m,0.2159,alien4,TRUE,3,0.919373431,28,0,0.280957594,x,0.932,0,59,59,59,1,0.564082304,0.450393207,0.498884326,0.280957594,TRUE,,,,,,,,,,,,,,,,,,,,,,,,,,,,,,,,,
12052023ny,2023-12-05_14h04.16.198,two_step_task_legacy,2022.2.4,Win32,60.09254252,12,learning,0,resources/alien1_norm.png,0.53981291,resources/alien2_norm.png,0.437230037,TRUE,TRUE,3,0.38335888,red,m,0.299400001,alien1,TRUE,3,0.80944899,28,0,0.53981291,x,0.4659,0,60,60,60,1,0.53981291,0.437230037,0.512334178,0.29816981,FALSE,,,,,,,,,,,,,,,,,,,,,,,,,,,,,,,,,
12052023ny,2023-12-05_14h04.16.198,two_step_task_legacy,2022.2.4,Win32,60.09254252,12,learning,0,resources/alien2_norm.png,0.408523574,resources/alien1_norm.png,0.542198582,TRUE,TRUE,3,0.316502569,red,m,0.249,alien1,TRUE,2,0.006870821,29,1,0.542198582,m,0.616,0,61,61,61,1,0.542198582,0.408523574,0.493255749,0.300398038,TRUE,,,,,,,,,,,,,,,,,,,,,,,,,,,,,,,,,
12052023ny,2023-12-05_14h04.16.198,two_step_task_legacy,2022.2.4,Win32,60.09254252,12,learning,0,resources/alien1_norm.png,0.553400411,resources/alien2_norm.png,0.411077926,TRUE,TRUE,3,0.239712766,red,m,0.186400001,alien1,TRUE,3,0.967638945,29,0,0.553400411,x,0.3997,0,62,62,62,1,0.553400411,0.411077926,0.455736393,0.328365954,FALSE,,,,,,,,,,,,,,,,,,,,,,,,,,,,,,,,,
12052023ny,2023-12-05_14h04.16.198,two_step_task_legacy,2022.2.4,Win32,60.09254252,12,learning,0,resources/alien2_norm.png,0.406019514,resources/alien1_norm.png,0.532091217,TRUE,TRUE,3,0.685286092,red,m,0.1995,alien1,TRUE,2,0.117245181,30,1,0.532091217,m,0.3998,0,63,63,63,1,0.532091217,0.406019514,0.43085802,0.296052257,TRUE,,,,,,,,,,,,,,,,,,,,,,,,,,,,,,,,,
12052023ny,2023-12-05_14h04.16.198,two_step_task_legacy,2022.2.4,Win32,60.09254252,12,learning,0,resources/alien2_norm.png,0.402954101,resources/alien1_norm.png,0.528556267,TRUE,TRUE,3,0.171739711,red,m,0.2331,alien1,TRUE,2,0.509161558,31,1,0.528556267,m,0.3996,0,64,64,64,1,0.528556267,0.402954101,0.431770405,0.308549713,TRUE,,,,,,,,,,,,,,,,,,,,,,,,,,,,,,,,,
12052023ny,2023-12-05_14h04.16.198,two_step_task_legacy,2022.2.4,Win32,60.09254252,12,learning,0,resources/alien1_norm.png,0.530871421,resources/alien2_norm.png,0.378496771,TRUE,TRUE,3,0.453783615,red,m,0.249900001,alien2,TRUE,3,0.555198845,31,0,0.378496771,m,0.299900001,0,65,65,65,1,0.530871421,0.378496771,0.408306448,0.335566259,FALSE,,,,,,,,,,,,,,,,,,,,,,,,,,,,,,,,,
12052023ny,2023-12-05_14h04.16.198,two_step_task_legacy,2022.2.4,Win32,60.09254252,12,learning,1,resources/alien4_norm.png,0.323734119,resources/alien3_norm.png,0.436013766,TRUE,TRUE,2,0.778689532,purple,m,0.366099999,alien4,TRUE,2,0.019764817,32,1,0.323734119,x,0.9345,0,66,66,66,1,0.570239628,0.420658115,0.436013766,0.323734119,TRUE,,,,,,,,,,,,,,,,,,,,,,,,,,,,,,,,,
12052023ny,2023-12-05_14h04.16.198,two_step_task_legacy,2022.2.4,Win32,60.09254252,12,learning,0,resources/alien4_norm.png,0.315556681,resources/alien3_norm.png,0.453792841,TRUE,TRUE,2,0.606437248,purple,x,0.2667,alien4,TRUE,3,0.954794695,32,0,0.315556681,x,0.3998,0,67,67,67,1,0.591449475,0.448762809,0.453792841,0.315556681,TRUE,,,,,,,,,,,,,,,,,,,,,,,,,,,,,,,,,
12052023ny,2023-12-05_14h04.16.198,two_step_task_legacy,2022.2.4,Win32,60.09254252,12,learning,0,resources/alien4_norm.png,0.298122992,resources/alien3_norm.png,0.441660247,TRUE,TRUE,2,0.289810317,purple,x,0.217,alien4,TRUE,2,0.167755911,33,1,0.298122992,x,0.399400001,0,68,68,68,1,0.563331053,0.474234796,0.441660247,0.298122992,TRUE,,,,,,,,,,,,,,,,,,,,,,,,,,,,,,,,,
12052023ny,2023-12-05_14h04.16.198,two_step_task_legacy,2022.2.4,Win32,60.09254252,12,learning,1,resources/alien1_norm.png,0.563152249,resources/alien2_norm.png,0.437253036,TRUE,TRUE,3,0.721262079,red,x,0.2035,alien1,TRUE,3,0.780448238,33,0,0.563152249,x,0.8455,0,69,69,69,1,0.563152249,0.437253036,0.404262068,0.291150742,FALSE,,,,,,,,,,,,,,,,,,,,,,,,,,,,,,,,,
12052023ny,2023-12-05_14h04.16.198,two_step_task_legacy,2022.2.4,Win32,60.09254252,12,learning,0,resources/alien4_norm.png,0.309207509,resources/alien3_norm.png,0.444846811,TRUE,TRUE,2,0.010115444,purple,x,0.233900001,alien4,TRUE,2,0.06027696,34,1,0.309207509,x,0.416,0,70,70,70,1,0.552683953,0.464935753,0.444846811,0.309207509,TRUE,,,,,,,,,,,,,,,,,,,,,,,,,,,,,,,,,
12052023ny,2023-12-05_14h04.16.198,two_step_task_legacy,2022.2.4,Win32,60.09254252,12,learning,1,resources/alien1_norm.png,0.533608205,resources/alien2_norm.png,0.481614969,TRUE,TRUE,3,0.723830903,red,x,0.2666,alien2,TRUE,2,0.425810558,35,1,0.481614969,m,0.7195,0,71,71,71,1,0.533608205,0.481614969,0.463570435,0.323545862,FALSE,,,,,,,,,,,,,,,,,,,,,,,,,,,,,,,,,
12052023ny,2023-12-05_14h04.16.198,two_step_task_legacy,2022.2.4,Win32,60.09254252,12,learning,0,resources/alien4_norm.png,0.26823201,resources/alien3_norm.png,0.465009016,TRUE,TRUE,2,0.010679584,purple,x,0.216599999,alien4,TRUE,3,0.534731853,35,0,0.26823201,x,0.5832,0,72,72,72,1,0.535548537,0.474561818,0.465009016,0.26823201,TRUE,,,,,,,,,,,,,,,,,,,,,,,,,,,,,,,,,
12052023ny,2023-12-05_14h04.16.198,two_step_task_legacy,2022.2.4,Win32,60.09254252,12,learning,1,resources/alien3_norm.png,0.436372984,resources/alien4_norm.png,0.260372941,TRUE,TRUE,2,0.718194513,purple,m,0.216799999,alien4,TRUE,3,0.777738329,35,0,0.260372941,m,1.8638,0,73,73,73,1,0.542768918,0.440801261,0.436372984,0.260372941,FALSE,,,,,,,,,,,,,,,,,,,,,,,,,,,,,,,,,
12052023ny,2023-12-05_14h04.16.198,two_step_task_legacy,2022.2.4,Win32,60.09254252,12,learning,0,resources/alien1_norm.png,0.560222004,resources/alien2_norm.png,0.423159054,TRUE,TRUE,3,0.143761793,red,m,0.2314,alien2,TRUE,3,0.723987502,35,0,0.423159054,m,0.4494,0,74,74,74,1,0.560222004,0.423159054,0.458779651,0.260758683,FALSE,,,,,,,,,,,,,,,,,,,,,,,,,,,,,,,,,
12052023ny,2023-12-05_14h04.16.198,two_step_task_legacy,2022.2.4,Win32,60.09254252,12,learning,0,resources/alien1_norm.png,0.539174426,resources/alien2_norm.png,0.448163788,TRUE,TRUE,3,0.439767233,red,m,0.2162,alien2,TRUE,3,0.574738068,35,0,0.448163788,m,0.3388,0,75,75,75,1,0.539174426,0.448163788,0.455266135,0.257379297,FALSE,,,,,,,,,,,,,,,,,,,,,,,,,,,,,,,,,
12052023ny,2023-12-05_14h04.16.198,two_step_task_legacy,2022.2.4,Win32,60.09254252,12,learning,0,resources/alien4_norm.png,0.270596693,resources/alien3_norm.png,0.420217761,TRUE,TRUE,2,0.177528001,purple,x,0.2332,alien4,TRUE,3,0.34116279,35,0,0.270596693,x,0.5355,0,76,76,76,1,0.537408479,0.478471932,0.420217761,0.270596693,TRUE,,,,,,,,,,,,,,,,,,,,,,,,,,,,,,,,,
12052023ny,2023-12-05_14h04.16.198,two_step_task_legacy,2022.2.4,Win32,60.09254252,12,learning,0,resources/alien3_norm.png,0.409778881,resources/alien4_norm.png,0.277037121,TRUE,TRUE,2,0.62510131,purple,x,0.233599999,alien3,TRUE,3,0.429726434,35,0,0.409778881,x,0.5278,0,77,77,77,1,0.512388297,0.457419685,0.409778881,0.277037121,FALSE,,,,,,,,,,,,,,,,,,,,,,,,,,,,,,,,,
12052023ny,2023-12-05_14h04.16.198,two_step_task_legacy,2022.2.4,Win32,60.09254252,12,learning,0,resources/alien1_norm.png,0.489858931,resources/alien2_norm.png,0.466419283,TRUE,TRUE,3,0.181488857,red,m,0.4358,alien2,TRUE,3,0.787425105,35,0,0.466419283,m,0.5325,0,78,78,78,1,0.489858931,0.466419283,0.372565236,0.270516911,FALSE,,,,,,,,,,,,,,,,,,,,,,,,,,,,,,,,,
12052023ny,2023-12-05_14h04.16.198,two_step_task_legacy,2022.2.4,Win32,60.09254252,12,learning,1,resources/alien4_norm.png,0.262603515,resources/alien3_norm.png,0.390463231,TRUE,TRUE,2,0.742100281,purple,m,0.2502,alien4,TRUE,3,0.903258511,35,0,0.262603515,x,1.4367,0,79,79,79,1,0.540816343,0.466375344,0.390463231,0.262603515,TRUE,,,,,,,,,,,,,,,,,,,,,,,,,,,,,,,,,
12052023ny,2023-12-05_14h04.16.198,two_step_task_legacy,2022.2.4,Win32,60.09254252,12,learning,1,resources/alien3_norm.png,0.380539765,resources/alien4_norm.png,0.268738173,TRUE,TRUE,2,0.875292627,purple,m,0.216799999,alien3,TRUE,2,0.31585006,36,1,0.380539765,x,0.9812,0,80,80,80,1,0.506499763,0.477354251,0.380539765,0.268738173,FALSE,,,,,,,,,,,,,,,,,,,,,,,,,,,,,,,,,
12052023ny,2023-12-05_14h04.16.198,two_step_task_legacy,2022.2.4,Win32,60.09254252,12,learning,0,resources/alien4_norm.png,0.278779841,resources/alien3_norm.png,0.37781899,TRUE,TRUE,2,0.598907967,purple,x,0.2663,alien3,TRUE,3,0.850204833,36,0,0.37781899,m,0.4663,0,81,81,81,1,0.509536953,0.486946319,0.37781899,0.278779841,TRUE,,,,,,,,,,,,,,,,,,,,,,,,,,,,,,,,,
12052023ny,2023-12-05_14h04.16.198,two_step_task_legacy,2022.2.4,Win32,60.09254252,12,learning,0,resources/alien4_norm.png,0.287459421,resources/alien3_norm.png,0.392303267,TRUE,TRUE,2,0.173562458,purple,x,0.2665,alien3,TRUE,2,0.186998588,37,1,0.392303267,m,0.482900001,0,82,82,82,1,0.474041688,0.530653946,0.392303267,0.287459421,TRUE,,,,,,,,,,,,,,,,,,,,,,,,,,,,,,,,,
12052023ny,2023-12-05_14h04.16.198,two_step_task_legacy,2022.2.4,Win32,60.09254252,12,learning,0,resources/alien4_norm.png,0.254140851,resources/alien3_norm.png,0.440685571,TRUE,TRUE,2,0.011753917,purple,x,0.233200001,alien3,TRUE,3,0.78636502,37,0,0.440685571,m,0.4828,0,83,83,83,1,0.424967503,0.582042098,0.440685571,0.254140851,TRUE,,,,,,,,,,,,,,,,,,,,,,,,,,,,,,,,,
12052023ny,2023-12-05_14h04.16.198,two_step_task_legacy,2022.2.4,Win32,60.09254252,12,learning,0,resources/alien3_norm.png,0.426076015,resources/alien4_norm.png,0.254161277,TRUE,TRUE,2,0.36634035,purple,x,0.3678,alien3,TRUE,3,0.58291328,37,0,0.426076015,x,0.4662,0,84,84,84,1,0.397793995,0.603390008,0.426076015,0.254161277,FALSE,,,,,,,,,,,,,,,,,,,,,,,,,,,,,,,,,
12052023ny,2023-12-05_14h04.16.198,two_step_task_legacy,2022.2.4,Win32,60.09254252,12,learning,0,resources/alien3_norm.png,0.412731233,resources/alien4_norm.png,0.287499545,TRUE,TRUE,2,0.043077202,purple,x,0.251200001,alien4,TRUE,3,0.420175428,37,0,0.287499545,m,0.553599999,0,85,85,85,1,0.353896535,0.591340821,0.412731233,0.287499545,FALSE,,,,,,,,,,,,,,,,,,,,,,,,,,,,,,,,,
12052023ny,2023-12-05_14h04.16.198,two_step_task_legacy,2022.2.4,Win32,60.09254252,12,learning,1,resources/alien3_norm.png,0.405193684,resources/alien4_norm.png,0.329089706,TRUE,TRUE,2,0.82444998,purple,m,0.200200001,alien3,TRUE,2,0.29123556,38,1,0.405193684,x,1.0487,0,86,86,86,1,0.37056204,0.589031784,0.405193684,0.329089706,FALSE,,,,,,,,,,,,,,,,,,,,,,,,,,,,,,,,,
12052023ny,2023-12-05_14h04.16.198,two_step_task_legacy,2022.2.4,Win32,60.09254252,12,learning,0,resources/alien4_norm.png,0.298753594,resources/alien3_norm.png,0.415436249,TRUE,TRUE,2,0.178375566,purple,x,0.2285,alien3,TRUE,2,0.032078914,39,1,0.415436249,m,0.4994,0,87,87,87,1,0.392392507,0.580656964,0.415436249,0.298753594,TRUE,,,,,,,,,,,,,,,,,,,,,,,,,,,,,,,,,
12052023ny,2023-12-05_14h04.16.198,two_step_task_legacy,2022.2.4,Win32,60.09254252,12,learning,0,resources/alien3_norm.png,0.395801273,resources/alien4_norm.png,0.35786834,TRUE,TRUE,2,0.530492501,purple,x,0.2167,alien3,TRUE,2,0.03315014,40,1,0.395801273,x,0.3867,0,88,88,88,1,0.430938527,0.589667006,0.395801273,0.35786834,FALSE,,,,,,,,,,,,,,,,,,,,,,,,,,,,,,,,,
12052023ny,2023-12-05_14h04.16.198,two_step_task_legacy,2022.2.4,Win32,60.09254252,12,learning,0,resources/alien4_norm.png,0.370932323,resources/alien3_norm.png,0.381916612,TRUE,TRUE,2,0.576285852,purple,x,0.216599999,alien3,TRUE,3,0.829758443,40,0,0.381916612,m,0.616,0,89,89,89,1,0.425500089,0.585241124,0.381916612,0.370932323,TRUE,,,,,,,,,,,,,,,,,,,,,,,,,,,,,,,,,
12052023ny,2023-12-05_14h04.16.198,two_step_task_legacy,2022.2.4,Win32,60.09254252,12,learning,0,resources/alien3_norm.png,0.388688958,resources/alien4_norm.png,0.37105745,TRUE,TRUE,2,0.373740327,purple,x,0.2333,alien3,TRUE,3,0.988725241,40,0,0.388688958,x,0.4992,0,90,90,90,1,0.429761836,0.586839223,0.388688958,0.37105745,FALSE,,,,,,,,,,,,,,,,,,,,,,,,,,,,,,,,,
12052023ny,2023-12-05_14h04.16.198,two_step_task_legacy,2022.2.4,Win32,60.09254252,12,learning,1,resources/alien4_norm.png,0.348228929,resources/alien3_norm.png,0.372095661,TRUE,TRUE,2,0.802794508,purple,m,0.2333,alien3,TRUE,3,0.542117444,40,0,0.372095661,m,1.3482,0,91,91,91,1,0.43208582,0.559902226,0.372095661,0.348228929,TRUE,,,,,,,,,,,,,,,,,,,,,,,,,,,,,,,,,
12052023ny,2023-12-05_14h04.16.198,two_step_task_legacy,2022.2.4,Win32,60.09254252,12,learning,0,resources/alien2_norm.png,0.558620764,resources/alien1_norm.png,0.461985946,TRUE,TRUE,3,0.594034537,red,m,0.265799999,alien1,TRUE,3,0.966189134,40,0,0.461985946,m,0.4491,0,92,92,92,1,0.461985946,0.558620764,0.375940415,0.325999614,TRUE,,,,,,,,,,,,,,,,,,,,,,,,,,,,,,,,,
12052023ny,2023-12-05_14h04.16.198,two_step_task_legacy,2022.2.4,Win32,60.09254252,12,learning,0,resources/alien2_norm.png,0.550374425,resources/alien1_norm.png,0.474247227,TRUE,TRUE,3,0.431434036,red,m,0.249799999,alien2,TRUE,2,0.454753152,41,1,0.550374425,x,0.3997,0,93,93,93,1,0.474247227,0.550374425,0.381640589,0.332279798,TRUE,,,,,,,,,,,,,,,,,,,,,,,,,,,,,,,,,
12052023ny,2023-12-05_14h04.16.198,two_step_task_legacy,2022.2.4,Win32,60.09254252,12,learning,1,resources/alien4_norm.png,0.349684918,resources/alien3_norm.png,0.396206696,TRUE,TRUE,2,0.79545603,purple,m,0.2453,alien4,TRUE,3,0.456524705,41,0,0.349684918,x,1.281,0,94,94,94,1,0.461705647,0.55027378,0.396206696,0.349684918,TRUE,,,,,,,,,,,,,,,,,,,,,,,,,,,,,,,,,
12052023ny,2023-12-05_14h04.16.198,two_step_task_legacy,2022.2.4,Win32,60.09254252,12,learning,1,resources/alien4_norm.png,0.354236965,resources/alien3_norm.png,0.38053924,TRUE,TRUE,2,0.813084058,purple,m,0.199799999,alien3,TRUE,2,0.320496019,42,1,0.38053924,m,0.9654,0,95,95,95,1,0.416984428,0.598369056,0.38053924,0.354236965,TRUE,,,,,,,,,,,,,,,,,,,,,,,,,,,,,,,,,
12052023ny,2023-12-05_14h04.16.198,two_step_task_legacy,2022.2.4,Win32,60.09254252,12,learning,1,resources/alien2_norm.png,0.609173656,resources/alien1_norm.png,0.407761739,TRUE,TRUE,3,0.706128648,red,x,0.337099999,alien1,TRUE,3,0.823403144,42,0,0.407761739,m,1.0047,0,96,96,96,1,0.407761739,0.609173656,0.428114694,0.407247632,TRUE,,,,,,,,,,,,,,,,,,,,,,,,,,,,,,,,,
12052023ny,2023-12-05_14h04.16.198,two_step_task_legacy,2022.2.4,Win32,60.09254252,12,learning,0,resources/alien3_norm.png,0.436490439,resources/alien4_norm.png,0.380856422,TRUE,TRUE,2,0.041919997,purple,x,0.2667,alien3,TRUE,3,0.60841635,42,0,0.436490439,x,0.6654,0,97,97,97,1,0.409341462,0.572817306,0.436490439,0.380856422,FALSE,,,,,,,,,,,,,,,,,,,,,,,,,,,,,,,,,
12052023ny,2023-12-05_14h04.16.198,two_step_task_legacy,2022.2.4,Win32,60.09254252,12,learning,0,resources/alien4_norm.png,0.349942531,resources/alien3_norm.png,0.448093405,TRUE,TRUE,2,0.174364059,purple,x,0.250099999,alien3,TRUE,2,0.388102392,43,1,0.448093405,m,0.9652,0,98,98,98,1,0.448797335,0.581511113,0.448093405,0.349942531,TRUE,,,,,,,,,,,,,,,,,,,,,,,,,,,,,,,,,
12052023ny,2023-12-05_14h04.16.198,two_step_task_legacy,2022.2.4,Win32,60.09254252,12,learning,1,resources/alien1_norm.png,0.42387903,resources/alien2_norm.png,0.567760205,TRUE,TRUE,3,0.86368508,red,x,0.2367,alien2,TRUE,3,0.661453854,43,0,0.567760205,m,0.5492,0,99,99,99,1,0.42387903,0.567760205,0.482171592,0.400056614,FALSE,,,,,,,,,,,,,,,,,,,,,,,,,,,,,,,,,
12052023ny,2023-12-05_14h04.16.198,two_step_task_legacy,2022.2.4,Win32,60.09254252,12,learning,0,resources/alien3_norm.png,0.46141079,resources/alien4_norm.png,0.415091917,TRUE,TRUE,2,0.272019052,purple,x,0.100200001,alien3,TRUE,3,0.77240922,43,0,0.46141079,x,0.4982,0,100,100,100,1,0.412420681,0.563890316,0.46141079,0.415091917,FALSE,,,,,,,,,,,,,,,,,,,,,,,,,,,,,,,,,
12052023ny,2023-12-05_14h04.16.198,two_step_task_legacy,2022.2.4,Win32,60.09254252,12,learning,0,resources/alien2_norm.png,0.600035433,resources/alien1_norm.png,0.409728183,TRUE,TRUE,3,0.201238716,red,m,0.2333,alien2,TRUE,3,0.860235115,43,0,0.600035433,x,0.636900001,0,101,101,101,1,0.409728183,0.600035433,0.41992287,0.420370004,TRUE,,,,,,,,,,,,,,,,,,,,,,,,,,,,,,,,,
12052023ny,2023-12-05_14h04.16.198,two_step_task_legacy,2022.2.4,Win32,60.09254252,12,learning,0,resources/alien2_norm.png,0.598082931,resources/alien1_norm.png,0.470023162,TRUE,TRUE,3,0.658586178,red,m,0.2,alien1,TRUE,3,0.518665306,43,0,0.470023162,m,0.3781,0,102,102,102,1,0.470023162,0.598082931,0.421461486,0.407756446,TRUE,,,,,,,,,,,,,,,,,,,,,,,,,,,,,,,,,
12052023ny,2023-12-05_14h04.16.198,two_step_task_legacy,2022.2.4,Win32,60.09254252,12,learning,1,resources/alien2_norm.png,0.606396931,resources/alien1_norm.png,0.43789257,TRUE,TRUE,3,0.991861322,red,x,0.206099999,alien1,TRUE,3,0.460423952,43,0,0.43789257,m,1.135,0,103,103,103,1,0.43789257,0.606396931,0.412157498,0.39986788,TRUE,,,,,,,,,,,,,,,,,,,,,,,,,,,,,,,,,
12052023ny,2023-12-05_14h04.16.198,two_step_task_legacy,2022.2.4,Win32,60.09254252,12,learning,0,resources/alien3_norm.png,0.383872268,resources/alien4_norm.png,0.425433133,TRUE,TRUE,2,0.47066211,purple,x,0.1502,alien3,TRUE,3,0.889865748,43,0,0.383872268,x,1.0167,0,104,104,104,1,0.475073433,0.600008534,0.383872268,0.425433133,FALSE,,,,,,,,,,,,,,,,,,,,,,,,,,,,,,,,,
12052023ny,2023-12-05_14h04.16.198,two_step_task_legacy,2022.2.4,Win32,60.09254252,12,learning,0,resources/alien4_norm.png,0.416159119,resources/alien3_norm.png,0.369077296,TRUE,TRUE,2,0.343035674,purple,x,0.228599999,alien4,TRUE,3,0.986748133,43,0,0.416159119,x,0.748,0,105,105,105,1,0.459455836,0.621019516,0.369077296,0.416159119,TRUE,,,,,,,,,,,,,,,,,,,,,,,,,,,,,,,,,
12052023ny,2023-12-05_14h04.16.198,two_step_task_legacy,2022.2.4,Win32,60.09254252,12,learning,1,resources/alien2_norm.png,0.612005637,resources/alien1_norm.png,0.439265695,TRUE,TRUE,3,0.735862147,red,x,0.2192,alien1,TRUE,3,0.781711642,43,0,0.439265695,m,1.2466,0,106,106,106,1,0.439265695,0.612005637,0.370186364,0.426891694,TRUE,,,,,,,,,,,,,,,,,,,,,,,,,,,,,,,,,
12052023ny,2023-12-05_14h04.16.198,two_step_task_legacy,2022.2.4,Win32,60.09254252,12,learning,0,resources/alien4_norm.png,0.443933115,resources/alien3_norm.png,0.403070205,TRUE,TRUE,2,0.121476343,purple,x,0.2381,alien4,TRUE,3,0.735122969,43,0,0.443933115,x,1.5493,0,107,107,107,1,0.416861628,0.613214029,0.403070205,0.443933115,TRUE,,,,,,,,,,,,,,,,,,,,,,,,,,,,,,,,,
12052023ny,2023-12-05_14h04.16.198,two_step_task_legacy,2022.2.4,Win32,60.09254252,12,learning,1,resources/alien2_norm.png,0.630447984,resources/alien1_norm.png,0.370312188,TRUE,TRUE,3,0.978548688,red,x,0.1831,alien1,TRUE,3,0.881471235,43,0,0.370312188,m,0.934,0,108,108,108,1,0.370312188,0.630447984,0.4123455,0.404109598,TRUE,,,,,,,,,,,,,,,,,,,,,,,,,,,,,,,,,
12052023ny,2023-12-05_14h04.16.198,two_step_task_legacy,2022.2.4,Win32,60.09254252,12,learning,0,resources/alien3_norm.png,0.424317647,resources/alien4_norm.png,0.39028751,TRUE,TRUE,2,0.028332723,purple,x,0.15,alien3,TRUE,3,0.607419669,43,0,0.424317647,x,0.549,0,109,109,109,1,0.397578743,0.640961938,0.424317647,0.39028751,FALSE,,,,,,,,,,,,,,,,,,,,,,,,,,,,,,,,,
12052023ny,2023-12-05_14h04.16.198,two_step_task_legacy,2022.2.4,Win32,60.09254252,12,learning,0,resources/alien2_norm.png,0.616897372,resources/alien1_norm.png,0.382105981,TRUE,TRUE,3,0.337357496,red,m,0.299900001,alien2,TRUE,2,0.431175427,44,1,0.616897372,x,0.6822,0,110,110,110,1,0.382105981,0.616897372,0.442095075,0.412876683,TRUE,,,,,,,,,,,,,,,,,,,,,,,,,,,,,,,,,
12052023ny,2023-12-05_14h04.16.198,two_step_task_legacy,2022.2.4,Win32,60.09254252,12,learning,0,resources/alien1_norm.png,0.384277465,resources/alien2_norm.png,0.604947349,TRUE,TRUE,3,0.453894531,red,m,0.236099999,alien2,TRUE,3,0.730851725,44,0,0.604947349,m,0.5279,0,111,111,111,1,0.384277465,0.604947349,0.431070335,0.374497877,FALSE,,,,,,,,,,,,,,,,,,,,,,,,,,,,,,,,,
12052023ny,2023-12-05_14h04.16.198,two_step_task_legacy,2022.2.4,Win32,60.09254252,12,learning,0,resources/alien1_norm.png,0.386075218,resources/alien2_norm.png,0.619040452,TRUE,TRUE,3,0.62720757,red,m,0.2191,alien2,TRUE,2,0.275412841,45,1,0.619040452,m,0.428099999,0,112,112,112,1,0.386075218,0.619040452,0.440914329,0.389385149,FALSE,,,,,,,,,,,,,,,,,,,,,,,,,,,,,,,,,
12052023ny,2023-12-05_14h04.16.198,two_step_task_legacy,2022.2.4,Win32,60.09254252,12,learning,0,resources/alien1_norm.png,0.360923619,resources/alien2_norm.png,0.648065033,TRUE,TRUE,3,0.668036139,red,m,0.2392,alien2,TRUE,3,0.747880617,45,0,0.648065033,m,0.4326,0,113,113,113,1,0.360923619,0.648065033,0.481862535,0.41941802,FALSE,,,,,,,,,,,,,,,,,,,,,,,,,,,,,,,,,
12052023ny,2023-12-05_14h04.16.198,two_step_task_legacy,2022.2.4,Win32,60.09254252,12,learning,0,resources/alien1_norm.png,0.32290404,resources/alien2_norm.png,0.673813539,TRUE,TRUE,3,0.479856543,red,m,0.2713,alien2,TRUE,2,0.208845251,46,1,0.673813539,m,0.4162,0,114,114,114,1,0.32290404,0.673813539,0.49267225,0.440586974,FALSE,,,,,,,,,,,,,,,,,,,,,,,,,,,,,,,,,
12052023ny,2023-12-05_14h04.16.198,two_step_task_legacy,2022.2.4,Win32,60.09254252,12,learning,1,resources/alien3_norm.png,0.509836388,resources/alien4_norm.png,0.461677665,TRUE,TRUE,2,0.835001064,purple,m,0.283299999,alien4,TRUE,3,0.685832299,46,0,0.461677665,m,1.0647,0,115,115,115,1,0.323455644,0.710523316,0.509836388,0.461677665,FALSE,,,,,,,,,,,,,,,,,,,,,,,,,,,,,,,,,
12052023ny,2023-12-05_14h04.16.198,two_step_task_legacy,2022.2.4,Win32,60.09254252,12,learning,0,resources/alien2_norm.png,0.71345274,resources/alien1_norm.png,0.342298796,TRUE,TRUE,3,0.689534639,red,m,0.2665,alien2,TRUE,2,0.226663011,47,1,0.71345274,x,0.4827,0,116,116,116,1,0.342298796,0.71345274,0.439463659,0.478781129,TRUE,,,,,,,,,,,,,,,,,,,,,,,,,,,,,,,,,
12052023ny,2023-12-05_14h04.16.198,two_step_task_legacy,2022.2.4,Win32,60.09254252,12,learning,0,resources/alien2_norm.png,0.720890484,resources/alien1_norm.png,0.334859228,TRUE,TRUE,3,0.321681481,red,m,0.2491,alien2,TRUE,2,0.007634808,48,1,0.720890484,x,0.521900001,0,117,117,117,1,0.334859228,0.720890484,0.417535164,0.445291487,TRUE,,,,,,,,,,,,,,,,,,,,,,,,,,,,,,,,,
12052023ny,2023-12-05_14h04.16.198,two_step_task_legacy,2022.2.4,Win32,60.09254252,12,learning,0,resources/alien1_norm.png,0.306028049,resources/alien2_norm.png,0.72441163,TRUE,TRUE,3,0.19630997,red,m,0.4116,alien2,TRUE,2,0.362790279,49,1,0.72441163,m,0.3835,0,118,118,118,1,0.306028049,0.72441163,0.388471429,0.461420132,FALSE,,,,,,,,,,,,,,,,,,,,,,,,,,,,,,,,,
12052023ny,2023-12-05_14h04.16.198,two_step_task_legacy,2022.2.4,Win32,60.09254252,12,learning,1,resources/alien4_norm.png,0.491748934,resources/alien3_norm.png,0.441704145,TRUE,TRUE,2,0.980209658,purple,m,0.2667,alien3,TRUE,2,0.249281001,50,1,0.441704145,m,0.9483,0,119,119,119,1,0.331712501,0.700852841,0.441704145,0.491748934,TRUE,,,,,,,,,,,,,,,,,,,,,,,,,,,,,,,,,
12052023ny,2023-12-05_14h04.16.198,two_step_task_legacy,2022.2.4,Win32,60.09254252,12,learning,0,resources/alien4_norm.png,0.475337246,resources/alien3_norm.png,0.427665055,TRUE,TRUE,2,0.212244266,purple,x,0.2666,alien3,TRUE,2,0.225623392,51,1,0.427665055,m,0.4494,0,120,120,120,1,0.32951786,0.706027338,0.427665055,0.475337246,TRUE,,,,,,,,,,,,,,,,,,,,,,,,,,,,,,,,,
12052023ny,2023-12-05_14h04.16.198,two_step_task_legacy,2022.2.4,Win32,60.09254252,12,learning,0,resources/alien3_norm.png,0.424883353,resources/alien4_norm.png,0.509069185,TRUE,TRUE,2,0.607820103,purple,x,0.2335,alien4,TRUE,3,0.832028683,51,0,0.509069185,m,0.378400001,0,121,121,121,1,0.330261592,0.737341807,0.424883353,0.509069185,FALSE,,,,,,,,,,,,,,,,,,,,,,,,,,,,,,,,,
12052023ny,2023-12-05_14h04.16.198,two_step_task_legacy,2022.2.4,Win32,60.09254252,12,learning,0,resources/alien3_norm.png,0.372565975,resources/alien4_norm.png,0.507675589,TRUE,TRUE,2,0.567648037,purple,x,0.3158,alien3,TRUE,3,0.377806681,51,0,0.372565975,x,0.566,0,122,122,122,1,0.344846278,0.73276884,0.372565975,0.507675589,FALSE,,,,,,,,,,,,,,,,,,,,,,,,,,,,,,,,,
12052023ny,2023-12-05_14h04.16.198,two_step_task_legacy,2022.2.4,Win32,60.09254252,12,learning,1,resources/alien1_norm.png,0.301180071,resources/alien2_norm.png,0.732502141,TRUE,TRUE,3,0.816161886,red,x,0.221,alien2,TRUE,2,0.132051297,52,1,0.732502141,m,0.4658,0,123,123,123,1,0.301180071,0.732502141,0.417529896,0.517036319,FALSE,,,,,,,,,,,,,,,,,,,,,,,,,,,,,,,,,
12052023ny,2023-12-05_14h04.16.198,two_step_task_legacy,2022.2.4,Win32,60.09254252,12,learning,1,resources/alien1_norm.png,0.302511879,resources/alien2_norm.png,0.685332928,TRUE,TRUE,3,0.851279755,red,x,0.2392,alien2,TRUE,2,0.196495746,53,1,0.685332928,m,0.6552,0,124,124,124,1,0.302511879,0.685332928,0.42173742,0.511184893,FALSE,,,,,,,,,,,,,,,,,,,,,,,,,,,,,,,,,
12052023ny,2023-12-05_14h04.16.198,two_step_task_legacy,2022.2.4,Win32,60.09254252,12,learning,1,resources/alien3_norm.png,0.393240926,resources/alien4_norm.png,0.566242911,TRUE,TRUE,2,0.845546866,purple,m,0.2453,alien3,TRUE,3,0.819307593,53,0,0.393240926,x,0.8436,0,125,125,125,1,0.285413018,0.625335705,0.393240926,0.566242911,FALSE,,,,,,,,,,,,,,,,,,,,,,,,,,,,,,,,,
12052023ny,2023-12-05_14h04.16.198,two_step_task_legacy,2022.2.4,Win32,60.09254252,12,learning,0,resources/alien1_norm.png,0.292942249,resources/alien2_norm.png,0.66920814,TRUE,TRUE,3,0.379124333,red,m,0.249900001,alien2,TRUE,3,0.915324611,53,0,0.66920814,m,0.3995,0,126,126,126,1,0.292942249,0.66920814,0.39388883,0.552018895,FALSE,,,,,,,,,,,,,,,,,,,,,,,,,,,,,,,,,
12052023ny,2023-12-05_14h04.16.198,two_step_task_legacy,2022.2.4,Win32,60.09254252,12,learning,0,resources/alien2_norm.png,0.739663062,resources/alien1_norm.png,0.297873079,TRUE,TRUE,3,0.161494927,red,m,0.2192,alien1,TRUE,2,0.114267456,54,1,0.297873079,m,0.395,0,127,127,127,1,0.297873079,0.739663062,0.430413644,0.566008228,TRUE,,,,,,,,,,,,,,,,,,,,,,,,,,,,,,,,,
12052023ny,2023-12-05_14h04.16.198,two_step_task_legacy,2022.2.4,Win32,60.09254252,12,learning,0,resources/alien1_norm.png,0.322041132,resources/alien2_norm.png,0.741610207,TRUE,TRUE,3,0.349733063,red,m,0.3664,alien1,TRUE,2,0.11146776,55,1,0.322041132,x,0.5658,0,128,128,128,1,0.322041132,0.741610207,0.420023625,0.56929572,FALSE,,,,,,,,,,,,,,,,,,,,,,,,,,,,,,,,,
12052023ny,2023-12-05_14h04.16.198,two_step_task_legacy,2022.2.4,Win32,60.09254252,12,learning,0,resources/alien1_norm.png,0.300972771,resources/alien2_norm.png,0.702201765,TRUE,TRUE,3,0.0276846,red,m,0.4392,alien1,TRUE,2,0.038051494,56,1,0.300972771,x,0.4661,0,129,129,129,1,0.300972771,0.702201765,0.449769214,0.563348669,FALSE,,,,,,,,,,,,,,,,,,,,,,,,,,,,,,,,,
12052023ny,2023-12-05_14h04.16.198,two_step_task_legacy,2022.2.4,Win32,60.09254252,12,learning,1,resources/alien4_norm.png,0.543372453,resources/alien3_norm.png,0.476905855,TRUE,TRUE,2,0.804865808,purple,m,0.271099999,alien3,TRUE,3,0.479314296,56,0,0.476905855,m,1.0275,0,130,130,130,1,0.309394882,0.682168877,0.476905855,0.543372453,TRUE,,,,,,,,,,,,,,,,,,,,,,,,,,,,,,,,,
12052023ny,2023-12-05_14h04.16.198,two_step_task_legacy,2022.2.4,Win32,60.09254252,12,learning,0,resources/alien1_norm.png,0.304060393,resources/alien2_norm.png,0.667549921,TRUE,TRUE,3,0.474962449,red,m,0.2497,alien1,TRUE,3,0.46844762,56,0,0.304060393,x,0.4327,0,131,131,131,1,0.304060393,0.667549921,0.481826843,0.535502227,FALSE,,,,,,,,,,,,,,,,,,,,,,,,,,,,,,,,,
12052023ny,2023-12-05_14h04.16.198,two_step_task_legacy,2022.2.4,Win32,60.09254252,12,learning,1,resources/alien4_norm.png,0.542899405,resources/alien3_norm.png,0.47286744,TRUE,TRUE,2,0.922702895,purple,m,0.122900001,alien4,TRUE,3,0.568748717,56,0,0.542899405,x,0.7441,0,132,132,132,1,0.312140737,0.694841666,0.47286744,0.542899405,TRUE,,,,,,,,,,,,,,,,,,,,,,,,,,,,,,,,,
12052023ny,2023-12-05_14h04.16.198,two_step_task_legacy,2022.2.4,Win32,60.09254252,12,learning,0,resources/alien2_norm.png,0.707468685,resources/alien1_norm.png,0.334362108,TRUE,TRUE,3,0.381770028,red,m,0.2498,alien1,TRUE,2,0.274652328,57,1,0.334362108,m,0.4351,0,133,133,133,1,0.334362108,0.707468685,0.500552221,0.525972175,TRUE,,,,,,,,,,,,,,,,,,,,,,,,,,,,,,,,,
12052023ny,2023-12-05_14h04.16.198,two_step_task_legacy,2022.2.4,Win32,60.09254252,12,learning,0,resources/alien1_norm.png,0.312840567,resources/alien2_norm.png,0.729767243,TRUE,TRUE,3,0.413557447,red,m,0.233400001,alien1,TRUE,3,0.670165123,57,0,0.312840567,x,0.4847,0,134,134,134,1,0.312840567,0.729767243,0.485572466,0.503581213,FALSE,,,,,,,,,,,,,,,,,,,,,,,,,,,,,,,,,
12052023ny,2023-12-05_14h04.16.198,two_step_task_legacy,2022.2.4,Win32,60.09254252,12,learning,1,resources/alien4_norm.png,0.5115277,resources/alien3_norm.png,0.466999856,TRUE,TRUE,2,0.856955898,purple,m,0.083299999,alien3,TRUE,2,0.072018788,58,1,0.466999856,m,1.2977,0,135,135,135,1,0.312825098,0.743400172,0.466999856,0.5115277,TRUE,,,,,,,,,,,,,,,,,,,,,,,,,,,,,,,,,
12052023ny,2023-12-05_14h04.16.198,two_step_task_legacy,2022.2.4,Win32,60.09254252,12,learning,1,resources/alien1_norm.png,0.342196198,resources/alien2_norm.png,0.734901943,TRUE,TRUE,3,0.755688314,red,x,0.2507,alien1,TRUE,2,0.160859463,59,1,0.342196198,x,1.131099999,0,136,136,136,1,0.342196198,0.734901943,0.464677105,0.536755588,FALSE,,,,,,,,,,,,,,,,,,,,,,,,,,,,,,,,,
12052023ny,2023-12-05_14h04.16.198,two_step_task_legacy,2022.2.4,Win32,60.09254252,12,learning,0,resources/alien4_norm.png,0.494444841,resources/alien3_norm.png,0.49321831,TRUE,TRUE,2,0.354510748,purple,x,0.233400001,alien3,TRUE,3,0.675473794,59,0,0.49321831,m,0.4327,0,137,137,137,1,0.368861684,0.747011609,0.49321831,0.494444841,TRUE,,,,,,,,,,,,,,,,,,,,,,,,,,,,,,,,,
12052023ny,2023-12-05_14h04.16.198,two_step_task_legacy,2022.2.4,Win32,60.09254252,12,learning,0,resources/alien2_norm.png,0.697212233,resources/alien1_norm.png,0.406866843,TRUE,TRUE,3,0.011067028,red,m,0.25,alien1,TRUE,3,0.944402859,59,0,0.406866843,m,0.4947,0,138,138,138,1,0.406866843,0.697212233,0.476455124,0.495924537,TRUE,,,,,,,,,,,,,,,,,,,,,,,,,,,,,,,,,
12052023ny,2023-12-05_14h04.16.198,two_step_task_legacy,2022.2.4,Win32,60.09254252,12,learning,0,resources/alien4_norm.png,0.482705961,resources/alien3_norm.png,0.492237558,TRUE,TRUE,2,0.056249617,purple,x,0.2165,alien3,TRUE,3,0.782596853,59,0,0.492237558,m,0.4492,0,139,139,139,1,0.397205352,0.680972767,0.492237558,0.482705961,TRUE,,,,,,,,,,,,,,,,,,,,,,,,,,,,,,,,,
12052023ny,2023-12-05_14h04.16.198,two_step_task_legacy,2022.2.4,Win32,60.09254252,12,learning,0,resources/alien4_norm.png,0.476273355,resources/alien3_norm.png,0.477118095,TRUE,TRUE,2,0.167600027,purple,x,0.2334,alien3,TRUE,2,0.388969958,60,1,0.477118095,m,0.5495,0,140,140,140,1,0.425269322,0.71001807,0.477118095,0.476273355,TRUE,,,,,,,,,,,,,,,,,,,,,,,,,,,,,,,,,
12052023ny,2023-12-05_14h04.16.198,two_step_task_legacy,2022.2.4,Win32,60.09254252,12,learning,0,resources/alien3_norm.png,0.53376836,resources/alien4_norm.png,0.506334783,TRUE,TRUE,2,0.514771675,purple,x,0.2325,alien3,TRUE,3,0.837776925,60,0,0.53376836,x,0.5826,0,141,141,141,1,0.44999939,0.707254196,0.53376836,0.506334783,FALSE,,,,,,,,,,,,,,,,,,,,,,,,,,,,,,,,,
12052023ny,2023-12-05_14h04.16.198,two_step_task_legacy,2022.2.4,Win32,60.09254252,12,learning,0,resources/alien3_norm.png,0.530369859,resources/alien4_norm.png,0.488537075,TRUE,TRUE,2,0.044112011,purple,x,0.1894,alien3,TRUE,3,0.814781076,60,0,0.530369859,x,0.399,0,142,142,142,1,0.45857487,0.713900156,0.530369859,0.488537075,FALSE,,,,,,,,,,,,,,,,,,,,,,,,,,,,,,,,,
12052023ny,2023-12-05_14h04.16.198,two_step_task_legacy,2022.2.4,Win32,60.09254252,12,learning,1,resources/alien3_norm.png,0.539460609,resources/alien4_norm.png,0.474258385,TRUE,TRUE,2,0.831522353,purple,m,0.150200001,alien3,TRUE,2,0.267992169,61,1,0.539460609,x,0.8717,0,143,143,143,1,0.438181608,0.736832649,0.539460609,0.474258385,FALSE,,,,,,,,,,,,,,,,,,,,,,,,,,,,,,,,,
12052023ny,2023-12-05_14h04.16.198,two_step_task_legacy,2022.2.4,Win32,60.09254252,12,learning,0,resources/alien2_norm.png,0.724637397,resources/alien1_norm.png,0.387458235,TRUE,TRUE,3,0.60057271,red,m,0.1999,alien1,TRUE,2,0.231736529,62,1,0.387458235,m,0.4536,0,144,144,144,1,0.387458235,0.724637397,0.55840292,0.452808468,TRUE,,,,,,,,,,,,,,,,,,,,,,,,,,,,,,,,,
12052023ny,2023-12-05_14h04.16.198,two_step_task_legacy,2022.2.4,Win32,60.09254252,12,learning,1,resources/alien4_norm.png,0.486213014,resources/alien3_norm.png,0.616412204,TRUE,TRUE,2,0.972434563,purple,m,0.9154,alien4,TRUE,2,0.009268017,63,1,0.486213014,x,0.960400001,0,145,145,145,1,0.404254171,0.743825326,0.616412204,0.486213014,TRUE,,,,,,,,,,,,,,,,,,,,,,,,,,,,,,,,,
12052023ny,2023-12-05_14h04.16.198,two_step_task_legacy,2022.2.4,Win32,60.09254252,12,learning,0,resources/alien4_norm.png,0.484730978,resources/alien3_norm.png,0.615240174,TRUE,TRUE,2,0.491392318,purple,x,0.2119,alien4,TRUE,3,0.866149859,63,0,0.484730978,x,0.416400001,0,146,146,146,1,0.367820523,0.710524321,0.615240174,0.484730978,TRUE,,,,,,,,,,,,,,,,,,,,,,,,,,,,,,,,,
12052023ny,2023-12-05_14h04.16.198,two_step_task_legacy,2022.2.4,Win32,60.09254252,12,learning,0,resources/alien4_norm.png,0.430151332,resources/alien3_norm.png,0.581764054,TRUE,TRUE,2,0.45323799,purple,x,0.256,alien4,TRUE,3,0.775421194,63,0,0.430151332,x,0.466,0,147,147,147,1,0.362321577,0.70157983,0.581764054,0.430151332,TRUE,,,,,,,,,,,,,,,,,,,,,,,,,,,,,,,,,
12052023ny,2023-12-05_14h04.16.198,two_step_task_legacy,2022.2.4,Win32,60.09254252,12,learning,0,resources/alien4_norm.png,0.425785354,resources/alien3_norm.png,0.576437376,TRUE,TRUE,2,0.525170828,purple,x,0.1659,alien3,TRUE,2,0.023072871,64,1,0.576437376,m,0.5985,0,148,148,148,1,0.302379389,0.735653625,0.576437376,0.425785354,TRUE,,,,,,,,,,,,,,,,,,,,,,,,,,,,,,,,,
12052023ny,2023-12-05_14h04.16.198,two_step_task_legacy,2022.2.4,Win32,60.09254252,12,learning,0,resources/alien4_norm.png,0.396012467,resources/alien3_norm.png,0.598082344,TRUE,TRUE,2,0.439332003,purple,x,0.2565,alien3,TRUE,2,0.244143402,65,1,0.598082344,m,0.383200001,0,149,149,149,1,0.326468766,0.701760343,0.598082344,0.396012467,TRUE,,,,,,,,,,,,,,,,,,,,,,,,,,,,,,,,,
12052023ny,2023-12-05_14h04.16.198,two_step_task_legacy,2022.2.4,Win32,60.09254252,12,learning,0,resources/alien3_norm.png,0.6,resources/alien4_norm.png,0.4,TRUE,TRUE,2,0.115322986,purple,x,0.1997,alien3,TRUE,2,0.49315147,66,1,0.6,x,0.6656,0,150,150,150,1,0.3,0.7,0.6,0.4,FALSE,,,,,,,,,,,,,,,,,,,,,,,,,,,,,,,,,
12052023ny,2023-12-05_14h04.16.198,two_step_task_legacy,2022.2.4,Win32,60.09254252,12,learning,0,resources/alien3_norm.png,0.6,resources/alien4_norm.png,0.4,TRUE,TRUE,2,0.374726562,purple,x,0.266599999,alien3,TRUE,3,0.601757018,66,0,0.6,x,0.519400001,0,151,151,151,1,0.3,0.7,0.6,0.4,FALSE,,,,,,,,,,,,,,,,,,,,,,,,,,,,,,,,,
12052023ny,2023-12-05_14h04.16.198,two_step_task_legacy,2022.2.4,Win32,60.09254252,12,learning,1,resources/alien2_norm.png,0.7,resources/alien1_norm.png,0.3,TRUE,TRUE,3,0.71159702,red,x,0.216299999,alien2,TRUE,2,0.509864531,67,1,0.7,x,1.445200001,0,152,152,152,1,0.3,0.7,0.6,0.4,TRUE,,,,,,,,,,,,,,,,,,,,,,,,,,,,,,,,,
12052023ny,2023-12-05_14h04.16.198,two_step_task_legacy,2022.2.4,Win32,60.09254252,12,learning,0,resources/alien3_norm.png,0.6,resources/alien4_norm.png,0.4,TRUE,TRUE,2,0.103912256,purple,x,0.2995,alien3,TRUE,2,0.270263298,68,1,0.6,x,0.405200001,0,153,153,153,1,0.3,0.7,0.6,0.4,FALSE,,,,,,,,,,,,,,,,,,,,,,,,,,,,,,,,,
12052023ny,2023-12-05_14h04.16.198,two_step_task_legacy,2022.2.4,Win32,60.09254252,12,learning,1,resources/alien2_norm.png,0.7,resources/alien1_norm.png,0.3,TRUE,TRUE,3,0.788048456,red,x,0.2163,alien2,TRUE,2,0.194105952,69,1,0.7,x,0.7986,0,154,154,154,1,0.3,0.7,0.6,0.4,TRUE,,,,,,,,,,,,,,,,,,,,,,,,,,,,,,,,,
12052023ny,2023-12-05_14h04.16.198,two_step_task_legacy,2022.2.4,Win32,60.09254252,12,learning,1,resources/alien2_norm.png,0.7,resources/alien1_norm.png,0.3,TRUE,TRUE,3,0.859614031,red,x,0.399599999,alien2,TRUE,2,0.245370606,70,1,0.7,x,0.7656,0,155,155,155,1,0.3,0.7,0.6,0.4,TRUE,,,,,,,,,,,,,,,,,,,,,,,,,,,,,,,,,
12052023ny,2023-12-05_14h04.16.198,two_step_task_legacy,2022.2.4,Win32,60.09254252,12,learning,1,resources/alien1_norm.png,0.3,resources/alien2_norm.png,0.7,TRUE,TRUE,3,0.946383126,red,x,0.4661,alien2,TRUE,3,0.99042406,70,0,0.7,m,0.549099999,0,156,156,156,1,0.3,0.7,0.6,0.4,FALSE,,,,,,,,,,,,,,,,,,,,,,,,,,,,,,,,,
12052023ny,2023-12-05_14h04.16.198,two_step_task_legacy,2022.2.4,Win32,60.09254252,12,learning,0,resources/alien4_norm.png,0.4,resources/alien3_norm.png,0.6,TRUE,TRUE,2,0.574382497,purple,x,0.2497,alien3,TRUE,3,0.853641236,70,0,0.6,m,0.5158,0,157,157,157,1,0.3,0.7,0.6,0.4,TRUE,,,,,,,,,,,,,,,,,,,,,,,,,,,,,,,,,
12052023ny,2023-12-05_14h04.16.198,two_step_task_legacy,2022.2.4,Win32,60.09254252,12,learning,0,resources/alien4_norm.png,0.4,resources/alien3_norm.png,0.6,TRUE,TRUE,2,0.608790138,purple,x,0.202599999,alien3,TRUE,3,0.630928263,70,0,0.6,m,0.433,0,158,158,158,1,0.3,0.7,0.6,0.4,TRUE,,,,,,,,,,,,,,,,,,,,,,,,,,,,,,,,,
12052023ny,2023-12-05_14h04.16.198,two_step_task_legacy,2022.2.4,Win32,60.09254252,12,learning,0,resources/alien2_norm.png,0.7,resources/alien1_norm.png,0.3,TRUE,TRUE,3,0.545707785,red,m,0.2228,alien2,TRUE,2,0.492976115,71,1,0.7,x,0.4294,0,159,159,159,1,0.3,0.7,0.6,0.4,TRUE,,,,,,,,,,,,,,,,,,,,,,,,,,,,,,,,,
12052023ny,2023-12-05_14h04.16.198,two_step_task_legacy,2022.2.4,Win32,60.09254252,12,learning,1,resources/alien3_norm.png,0.6,resources/alien4_norm.png,0.4,TRUE,TRUE,2,0.898757581,purple,m,0.2835,alien4,TRUE,3,0.562971357,71,0,0.4,m,0.9971,0,160,160,160,1,0.3,0.7,0.6,0.4,FALSE,,,,,,,,,,,,,,,,,,,,,,,,,,,,,,,,,
12052023ny,2023-12-05_14h04.16.198,two_step_task_legacy,2022.2.4,Win32,60.09254252,12,learning,0,resources/alien1_norm.png,0.3,resources/alien2_norm.png,0.7,TRUE,TRUE,3,0.259859944,red,m,0.2509,alien1,TRUE,3,0.777070532,71,0,0.3,x,0.3659,0,161,161,161,1,0.3,0.7,0.6,0.4,FALSE,,,,,,,,,,,,,,,,,,,,,,,,,,,,,,,,,
12052023ny,2023-12-05_14h04.16.198,two_step_task_legacy,2022.2.4,Win32,60.09254252,12,learning,0,resources/alien2_norm.png,0.7,resources/alien1_norm.png,0.3,TRUE,TRUE,3,0.532369023,red,m,0.268599999,alien2,TRUE,2,0.024403248,72,1,0.7,x,0.4334,0,162,162,162,1,0.3,0.7,0.6,0.4,TRUE,,,,,,,,,,,,,,,,,,,,,,,,,,,,,,,,,
12052023ny,2023-12-05_14h04.16.198,two_step_task_legacy,2022.2.4,Win32,60.09254252,12,learning,0,resources/alien2_norm.png,0.7,resources/alien1_norm.png,0.3,TRUE,TRUE,3,0.259946799,red,m,0.4151,alien2,TRUE,2,0.654182183,73,1,0.7,x,0.4441,0,163,163,163,1,0.3,0.7,0.6,0.4,TRUE,,,,,,,,,,,,,,,,,,,,,,,,,,,,,,,,,
12052023ny,2023-12-05_14h04.16.198,two_step_task_legacy,2022.2.4,Win32,60.09254252,12,learning,0,resources/alien2_norm.png,0.7,resources/alien1_norm.png,0.3,TRUE,TRUE,3,0.514052558,red,m,0.2492,alien2,TRUE,3,0.72953768,73,0,0.7,x,0.3945,0,164,164,164,1,0.3,0.7,0.6,0.4,TRUE,,,,,,,,,,,,,,,,,,,,,,,,,,,,,,,,,
12052023ny,2023-12-05_14h04.16.198,two_step_task_legacy,2022.2.4,Win32,60.09254252,12,learning,0,resources/alien2_norm.png,0.7,resources/alien1_norm.png,0.3,TRUE,TRUE,3,0.267750918,red,m,0.2683,alien2,TRUE,2,0.103716361,74,1,0.7,x,0.347400001,0,165,165,165,1,0.3,0.7,0.6,0.4,TRUE,,,,,,,,,,,,,,,,,,,,,,,,,,,,,,,,,
12052023ny,2023-12-05_14h04.16.198,two_step_task_legacy,2022.2.4,Win32,60.09254252,12,learning,0,resources/alien2_norm.png,0.7,resources/alien1_norm.png,0.3,TRUE,TRUE,3,0.580040311,red,m,0.244400001,alien2,TRUE,2,0.1005208,75,1,0.7,x,0.384599999,0,166,166,166,1,0.3,0.7,0.6,0.4,TRUE,,,,,,,,,,,,,,,,,,,,,,,,,,,,,,,,,
12052023ny,2023-12-05_14h04.16.198,two_step_task_legacy,2022.2.4,Win32,60.09254252,12,learning,0,resources/alien1_norm.png,0.3,resources/alien2_norm.png,0.7,TRUE,TRUE,3,0.188069909,red,m,0.2458,alien2,TRUE,3,0.70446439,75,0,0.7,m,0.4692,0,167,167,167,1,0.3,0.7,0.6,0.4,FALSE,,,,,,,,,,,,,,,,,,,,,,,,,,,,,,,,,
12052023ny,2023-12-05_14h04.16.198,two_step_task_legacy,2022.2.4,Win32,60.09254252,12,learning,0,resources/alien2_norm.png,0.7,resources/alien1_norm.png,0.3,TRUE,TRUE,3,0.111356806,red,m,0.377,alien2,TRUE,2,0.130498593,76,1,0.7,x,0.481,0,168,168,168,1,0.3,0.7,0.6,0.4,TRUE,,,,,,,,,,,,,,,,,,,,,,,,,,,,,,,,,
12052023ny,2023-12-05_14h04.16.198,two_step_task_legacy,2022.2.4,Win32,60.09254252,12,learning,0,resources/alien2_norm.png,0.7,resources/alien1_norm.png,0.3,TRUE,TRUE,3,0.163834343,red,m,0.665400001,alien2,TRUE,2,0.024672277,77,1,0.7,x,0.3377,0,169,169,169,1,0.3,0.7,0.6,0.4,TRUE,,,,,,,,,,,,,,,,,,,,,,,,,,,,,,,,,
12052023ny,2023-12-05_14h04.16.198,two_step_task_legacy,2022.2.4,Win32,60.09254252,12,learning,0,resources/alien1_norm.png,0.3,resources/alien2_norm.png,0.7,TRUE,TRUE,3,0.307472513,red,m,0.3821,alien2,TRUE,2,0.620716075,78,1,0.7,m,0.386,0,170,170,170,1,0.3,0.7,0.6,0.4,FALSE,,,,,,,,,,,,,,,,,,,,,,,,,,,,,,,,,
12052023ny,2023-12-05_14h04.16.198,two_step_task_legacy,2022.2.4,Win32,60.09254252,12,learning,0,resources/alien2_norm.png,0.7,resources/alien1_norm.png,0.3,TRUE,TRUE,3,0.684752285,red,m,0.2828,alien2,TRUE,2,0.623162351,79,1,0.7,x,0.343900001,0,171,171,171,1,0.3,0.7,0.6,0.4,TRUE,,,,,,,,,,,,,,,,,,,,,,,,,,,,,,,,,
12052023ny,2023-12-05_14h04.16.198,two_step_task_legacy,2022.2.4,Win32,60.09254252,12,learning,0,resources/alien2_norm.png,0.7,resources/alien1_norm.png,0.3,TRUE,TRUE,3,0.080650943,red,m,0.298299999,alien2,TRUE,3,0.827598256,79,0,0.7,x,0.4942,0,172,172,172,1,0.3,0.7,0.6,0.4,TRUE,,,,,,,,,,,,,,,,,,,,,,,,,,,,,,,,,
12052023ny,2023-12-05_14h04.16.198,two_step_task_legacy,2022.2.4,Win32,60.09254252,12,learning,0,resources/alien1_norm.png,0.3,resources/alien2_norm.png,0.7,TRUE,TRUE,3,0.171133748,red,m,0.1837,alien2,TRUE,3,0.837719343,79,0,0.7,m,0.516,0,173,173,173,1,0.3,0.7,0.6,0.4,FALSE,,,,,,,,,,,,,,,,,,,,,,,,,,,,,,,,,
12052023ny,2023-12-05_14h04.16.198,two_step_task_legacy,2022.2.4,Win32,60.09254252,12,learning,0,resources/alien2_norm.png,0.7,resources/alien1_norm.png,0.3,TRUE,TRUE,3,0.359047133,red,m,0.2499,alien1,TRUE,3,0.892556836,79,0,0.3,m,0.4445,0,174,174,174,1,0.3,0.7,0.6,0.4,TRUE,,,,,,,,,,,,,,,,,,,,,,,,,,,,,,,,,
12052023ny,2023-12-05_14h04.16.198,two_step_task_legacy,2022.2.4,Win32,60.09254252,12,learning,0,resources/alien3_norm.png,0.6,resources/alien4_norm.png,0.4,TRUE,TRUE,2,0.199081844,purple,x,0.283,alien3,TRUE,3,0.975664995,79,0,0.6,x,0.4577,0,175,175,175,1,0.3,0.7,0.6,0.4,FALSE,,,,,,,,,,,,,,,,,,,,,,,,,,,,,,,,,
12052023ny,2023-12-05_14h04.16.198,two_step_task_legacy,2022.2.4,Win32,60.09254252,12,learning,1,resources/alien2_norm.png,0.7,resources/alien1_norm.png,0.3,TRUE,TRUE,3,0.91794254,red,x,0.2029,alien1,TRUE,2,0.205514211,80,1,0.3,m,1.0459,0,176,176,176,1,0.3,0.7,0.6,0.4,TRUE,,,,,,,,,,,,,,,,,,,,,,,,,,,,,,,,,
12052023ny,2023-12-05_14h04.16.198,two_step_task_legacy,2022.2.4,Win32,60.09254252,12,learning,1,resources/alien4_norm.png,0.4,resources/alien3_norm.png,0.6,TRUE,TRUE,2,0.738305257,purple,m,0.2788,alien4,TRUE,3,0.614462862,80,0,0.4,x,0.641,0,177,177,177,1,0.3,0.7,0.6,0.4,TRUE,,,,,,,,,,,,,,,,,,,,,,,,,,,,,,,,,
12052023ny,2023-12-05_14h04.16.198,two_step_task_legacy,2022.2.4,Win32,60.09254252,12,learning,0,resources/alien2_norm.png,0.7,resources/alien1_norm.png,0.3,TRUE,TRUE,3,0.279826451,red,m,0.2607,alien2,TRUE,2,0.42991134,81,1,0.7,x,0.667400001,0,178,178,178,1,0.3,0.7,0.6,0.4,TRUE,,,,,,,,,,,,,,,,,,,,,,,,,,,,,,,,,
12052023ny,2023-12-05_14h04.16.198,two_step_task_legacy,2022.2.4,Win32,60.09254252,12,learning,0,resources/alien2_norm.png,0.7,resources/alien1_norm.png,0.3,TRUE,TRUE,3,0.241813669,red,m,0.247799999,alien2,TRUE,2,0.549893722,82,1,0.7,x,0.3768,0,179,179,179,1,0.3,0.7,0.6,0.4,TRUE,,,,,,,,,,,,,,,,,,,,,,,,,,,,,,,,,
12052023ny,2023-12-05_14h04.16.198,two_step_task_legacy,2022.2.4,Win32,60.09254252,12,learning,1,resources/alien4_norm.png,0.4,resources/alien3_norm.png,0.6,TRUE,TRUE,2,0.767290289,purple,m,0.2514,alien3,TRUE,3,0.676605451,82,0,0.6,m,1.2194,0,180,180,180,1,0.3,0.7,0.6,0.4,TRUE,,,,,,,,,,,,,,,,,,,,,,,,,,,,,,,,,
12052023ny,2023-12-05_14h04.16.198,two_step_task_legacy,2022.2.4,Win32,60.09254252,12,learning,1,resources/alien4_norm.png,0.4,resources/alien3_norm.png,0.6,TRUE,TRUE,2,0.940319252,purple,m,0.2169,alien4,TRUE,2,0.172141128,83,1,0.4,x,0.8815,0,181,181,181,1,0.3,0.7,0.6,0.4,TRUE,,,,,,,,,,,,,,,,,,,,,,,,,,,,,,,,,
12052023ny,2023-12-05_14h04.16.198,two_step_task_legacy,2022.2.4,Win32,60.09254252,12,learning,1,resources/alien4_norm.png,0.4,resources/alien3_norm.png,0.6,TRUE,TRUE,2,0.80196906,purple,m,0.226900001,alien4,TRUE,2,0.322916949,84,1,0.4,x,0.5492,0,182,182,182,1,0.3,0.7,0.6,0.4,TRUE,,,,,,,,,,,,,,,,,,,,,,,,,,,,,,,,,
12052023ny,2023-12-05_14h04.16.198,two_step_task_legacy,2022.2.4,Win32,60.09254252,12,learning,0,resources/alien4_norm.png,0.4,resources/alien3_norm.png,0.6,TRUE,TRUE,2,0.067084737,purple,x,0.2166,alien4,TRUE,2,0.027818712,85,1,0.4,x,0.352900001,0,183,183,183,1,0.3,0.7,0.6,0.4,TRUE,,,,,,,,,,,,,,,,,,,,,,,,,,,,,,,,,
12052023ny,2023-12-05_14h04.16.198,two_step_task_legacy,2022.2.4,Win32,60.09254252,12,learning,0,resources/alien4_norm.png,0.4,resources/alien3_norm.png,0.6,TRUE,TRUE,2,0.516342946,purple,x,0.2152,alien4,TRUE,3,0.577980049,85,0,0.4,x,0.3613,0,184,184,184,1,0.3,0.7,0.6,0.4,TRUE,,,,,,,,,,,,,,,,,,,,,,,,,,,,,,,,,
12052023ny,2023-12-05_14h04.16.198,two_step_task_legacy,2022.2.4,Win32,60.09254252,12,learning,0,resources/alien4_norm.png,0.4,resources/alien3_norm.png,0.6,TRUE,TRUE,2,0.050118936,purple,x,0.1675,alien4,TRUE,2,0.033967446,86,1,0.4,x,0.6113,0,185,185,185,1,0.3,0.7,0.6,0.4,TRUE,,,,,,,,,,,,,,,,,,,,,,,,,,,,,,,,,
12052023ny,2023-12-05_14h04.16.198,two_step_task_legacy,2022.2.4,Win32,60.09254252,12,learning,1,resources/alien1_norm.png,0.3,resources/alien2_norm.png,0.7,TRUE,TRUE,3,0.750814172,red,x,0.283099999,alien2,TRUE,2,0.613023797,87,1,0.7,m,1.1523,0,186,186,186,1,0.3,0.7,0.6,0.4,FALSE,,,,,,,,,,,,,,,,,,,,,,,,,,,,,,,,,
12052023ny,2023-12-05_14h04.16.198,two_step_task_legacy,2022.2.4,Win32,60.09254252,12,learning,1,resources/alien1_norm.png,0.3,resources/alien2_norm.png,0.7,TRUE,TRUE,3,0.756358458,red,x,0.2108,alien2,TRUE,2,0.156395252,88,1,0.7,m,0.6097,0,187,187,187,1,0.3,0.7,0.6,0.4,FALSE,,,,,,,,,,,,,,,,,,,,,,,,,,,,,,,,,
12052023ny,2023-12-05_14h04.16.198,two_step_task_legacy,2022.2.4,Win32,60.09254252,12,learning,0,resources/alien3_norm.png,0.6,resources/alien4_norm.png,0.4,TRUE,TRUE,2,0.142603493,purple,x,0.1331,alien4,TRUE,2,0.043350342,89,1,0.4,m,0.7768,0,188,188,188,1,0.3,0.7,0.6,0.4,FALSE,,,,,,,,,,,,,,,,,,,,,,,,,,,,,,,,,
12052023ny,2023-12-05_14h04.16.198,two_step_task_legacy,2022.2.4,Win32,60.09254252,12,learning,0,resources/alien3_norm.png,0.6,resources/alien4_norm.png,0.4,TRUE,TRUE,2,0.54984756,purple,x,0.2331,alien4,TRUE,3,0.796423709,89,0,0.4,m,0.4529,0,189,189,189,1,0.3,0.7,0.6,0.4,FALSE,,,,,,,,,,,,,,,,,,,,,,,,,,,,,,,,,
12052023ny,2023-12-05_14h04.16.198,two_step_task_legacy,2022.2.4,Win32,60.09254252,12,learning,1,resources/alien1_norm.png,0.3,resources/alien2_norm.png,0.7,TRUE,TRUE,3,0.743381736,red,x,0.2165,alien2,TRUE,2,0.176290076,90,1,0.7,m,0.560099999,0,190,190,190,1,0.3,0.7,0.6,0.4,FALSE,,,,,,,,,,,,,,,,,,,,,,,,,,,,,,,,,
12052023ny,2023-12-05_14h04.16.198,two_step_task_legacy,2022.2.4,Win32,60.09254252,12,learning,1,resources/alien4_norm.png,0.4,resources/alien3_norm.png,0.6,TRUE,TRUE,2,0.833687338,purple,m,0.277700001,alien4,TRUE,2,0.230882834,91,1,0.4,x,0.7838,0,191,191,191,1,0.3,0.7,0.6,0.4,TRUE,,,,,,,,,,,,,,,,,,,,,,,,,,,,,,,,,
12052023ny,2023-12-05_14h04.16.198,two_step_task_legacy,2022.2.4,Win32,60.09254252,12,learning,0,resources/alien1_norm.png,0.3,resources/alien2_norm.png,0.7,TRUE,TRUE,3,0.055406677,red,m,0.2321,alien2,TRUE,2,0.61978825,92,1,0.7,m,0.3927,0,192,192,192,1,0.3,0.7,0.6,0.4,FALSE,,,,,,,,,,,,,,,,,,,,,,,,,,,,,,,,,
12052023ny,2023-12-05_14h04.16.198,two_step_task_legacy,2022.2.4,Win32,60.09254252,12,learning,0,resources/alien1_norm.png,0.3,resources/alien2_norm.png,0.7,TRUE,TRUE,3,0.057267501,red,m,0.2208,alien2,TRUE,2,0.66366103,93,1,0.7,m,0.3824,0,193,193,193,1,0.3,0.7,0.6,0.4,FALSE,,,,,,,,,,,,,,,,,,,,,,,,,,,,,,,,,
12052023ny,2023-12-05_14h04.16.198,two_step_task_legacy,2022.2.4,Win32,60.09254252,12,learning,0,resources/alien2_norm.png,0.7,resources/alien1_norm.png,0.3,TRUE,TRUE,3,0.360590098,red,m,0.0506,alien2,TRUE,2,0.136799197,94,1,0.7,x,0.4824,0,194,194,194,1,0.3,0.7,0.6,0.4,TRUE,,,,,,,,,,,,,,,,,,,,,,,,,,,,,,,,,
12052023ny,2023-12-05_14h04.16.198,two_step_task_legacy,2022.2.4,Win32,60.09254252,12,learning,1,resources/alien4_norm.png,0.4,resources/alien3_norm.png,0.6,TRUE,TRUE,2,0.937488027,purple,m,0.2504,alien4,TRUE,3,0.61375443,94,0,0.4,x,1.157,0,195,195,195,1,0.3,0.7,0.6,0.4,TRUE,,,,,,,,,,,,,,,,,,,,,,,,,,,,,,,,,
12052023ny,2023-12-05_14h04.16.198,two_step_task_legacy,2022.2.4,Win32,60.09254252,12,learning,1,resources/alien3_norm.png,0.6,resources/alien4_norm.png,0.4,TRUE,TRUE,2,0.81807919,purple,m,0.3037,alien4,TRUE,2,0.281779291,95,1,0.4,m,0.7495,0,196,196,196,1,0.3,0.7,0.6,0.4,FALSE,,,,,,,,,,,,,,,,,,,,,,,,,,,,,,,,,
12052023ny,2023-12-05_14h04.16.198,two_step_task_legacy,2022.2.4,Win32,60.09254252,12,learning,0,resources/alien2_norm.png,0.7,resources/alien1_norm.png,0.3,TRUE,TRUE,3,0.119357053,red,m,0.1843,alien2,TRUE,3,0.859975999,95,0,0.7,x,0.4244,0,197,197,197,1,0.3,0.7,0.6,0.4,TRUE,,,,,,,,,,,,,,,,,,,,,,,,,,,,,,,,,
12052023ny,2023-12-05_14h04.16.198,two_step_task_legacy,2022.2.4,Win32,60.09254252,12,learning,1,resources/alien1_norm.png,0.3,resources/alien2_norm.png,0.7,TRUE,TRUE,3,0.707294043,red,x,0.4778,alien2,TRUE,2,0.66256103,96,1,0.7,m,0.687,0,198,198,198,1,0.3,0.7,0.6,0.4,FALSE,,,,,,,,,,,,,,,,,,,,,,,,,,,,,,,,,
12052023ny,2023-12-05_14h04.16.198,two_step_task_legacy,2022.2.4,Win32,60.09254252,12,learning,1,resources/alien3_norm.png,0.6,resources/alien4_norm.png,0.4,TRUE,TRUE,2,0.917644496,purple,m,0.1038,alien4,TRUE,3,0.806462115,96,0,0.4,m,0.62,0,199,199,199,1,0.3,0.7,0.6,0.4,FALSE,,,,,,,,,,,,,,,,,,,,,,,,,,,,,,,,,
12052023ny,2023-12-05_14h04.16.198,two_step_task_legacy,2022.2.4,Win32,60.09254252,12,learning,1,resources/alien2_norm.png,0.7,resources/alien1_norm.png,0.3,TRUE,TRUE,3,0.972390278,red,x,0.2665,alien2,TRUE,2,0.063432354,97,1,0.7,x,0.5192,0,200,200,200,1,0.3,0.7,0.6,0.4,TRUE,,,,,,,,,,,,,,,,,,,,,,,,,,,,,,,,,
12052023ny,2023-12-05_14h04.16.198,two_step_task_legacy,2022.2.4,Win32,60.09254252,12,learning,1,resources/alien4_norm.png,0.4,resources/alien3_norm.png,0.6,TRUE,TRUE,2,0.862454796,purple,m,0.2667,alien3,TRUE,3,0.670436788,97,0,0.6,m,0.971400001,0,201,201,201,1,0.3,0.7,0.6,0.4,TRUE,,,,,,,,,,,,,,,,,,,,,,,,,,,,,,,,,
12052023ny,2023-12-05_14h04.16.198,two_step_task_legacy,2022.2.4,Win32,60.09254252,12,learning,0,resources/alien1_norm.png,0.3,resources/alien2_norm.png,0.7,TRUE,TRUE,3,0.653115727,red,m,0.25,alien2,TRUE,2,0.148501297,98,1,0.7,m,0.4818,0,202,202,202,1,0.3,0.7,0.6,0.4,FALSE,,,,,,,,,,,,,,,,,,,,,,,,,,,,,,,,,
12052023ny,2023-12-05_14h04.16.198,two_step_task_legacy,2022.2.4,Win32,60.09254252,12,learning,1,resources/alien3_norm.png,0.6,resources/alien4_norm.png,0.4,TRUE,TRUE,2,0.854753537,purple,m,0.2667,alien3,TRUE,2,0.189607835,99,1,0.6,x,0.820599999,0,203,203,203,1,0.3,0.7,0.6,0.4,FALSE,,,,,,,,,,,,,,,,,,,,,,,,,,,,,,,,,
12052023ny,2023-12-05_14h04.16.198,two_step_task_legacy,2022.2.4,Win32,60.09254252,12,learning,0,resources/alien3_norm.png,0.6,resources/alien4_norm.png,0.4,TRUE,TRUE,2,0.448409748,purple,x,0.2497,alien3,TRUE,3,0.614477023,99,0,0.6,x,0.3887,0,204,204,204,1,0.3,0.7,0.6,0.4,FALSE,,,,,,,,,,,,,,,,,,,,,,,,,,,,,,,,,
12052023ny,2023-12-05_14h04.16.198,two_step_task_legacy,2022.2.4,Win32,60.09254252,12,learning,0,resources/alien4_norm.png,0.4,resources/alien3_norm.png,0.6,TRUE,TRUE,2,0.295092182,purple,x,0.2666,alien3,TRUE,2,0.281967595,100,1,0.6,m,0.4993,0,205,205,205,1,0.3,0.7,0.6,0.4,TRUE,,,,,,,,,,,,,,,,,,,,,,,,,,,,,,,,,
12052023ny,2023-12-05_14h04.16.198,two_step_task_legacy,2022.2.4,Win32,60.09254252,12,learning,0,resources/alien4_norm.png,0.4,resources/alien3_norm.png,0.6,TRUE,TRUE,2,0.362201854,purple,x,0.266400001,alien3,TRUE,3,0.954218254,100,0,0.6,m,0.4994,0,206,206,206,1,0.3,0.7,0.6,0.4,TRUE,,,,,,,,,,,,,,,,,,,,,,,,,,,,,,,,,
12052023ny,2023-12-05_14h04.16.198,two_step_task_legacy,2022.2.4,Win32,60.09254252,12,learning,0,resources/alien3_norm.png,0.6,resources/alien4_norm.png,0.4,TRUE,TRUE,2,0.355343812,purple,x,0.299,alien3,TRUE,3,0.894390618,100,0,0.6,x,0.6114,0,207,207,207,1,0.3,0.7,0.6,0.4,FALSE,,,,,,,,,,,,,,,,,,,,,,,,,,,,,,,,,
12052023ny,2023-12-05_14h04.16.198,two_step_task_legacy,2022.2.4,Win32,60.09254252,12,learning,0,resources/alien1_norm.png,0.3,resources/alien2_norm.png,0.7,TRUE,TRUE,3,0.629644051,red,m,0.0672,alien2,TRUE,2,0.179166127,101,1,0.7,m,0.580599999,0,208,208,208,1,0.3,0.7,0.6,0.4,FALSE,,,,,,,,,,,,,,,,,,,,,,,,,,,,,,,,,
12052023ny,2023-12-05_14h04.16.198,two_step_task_legacy,2022.2.4,Win32,60.09254252,12,learning,0,resources/alien2_norm.png,0.7,resources/alien1_norm.png,0.3,TRUE,TRUE,3,0.576716438,red,m,0.2002,alien2,TRUE,3,0.885111614,101,0,0.7,x,0.5153,0,209,209,209,1,0.3,0.7,0.6,0.4,TRUE,,,,,,,,,,,,,,,,,,,,,,,,,,,,,,,,,
12052023ny,2023-12-05_14h04.16.198,two_step_task_legacy,2022.2.4,Win32,60.09254252,12,learning,1,resources/alien4_norm.png,0.4,resources/alien3_norm.png,0.6,TRUE,TRUE,2,0.967580262,purple,m,0.2167,alien3,TRUE,3,0.638179387,101,0,0.6,m,1.3145,0,210,210,210,1,0.3,0.7,0.6,0.4,TRUE,,,,,,,,,,,,,,,,,,,,,,,,,,,,,,,,,
12052023ny,2023-12-05_14h04.16.198,two_step_task_legacy,2022.2.4,Win32,60.09254252,12,learning,0,resources/alien2_norm.png,0.7,resources/alien1_norm.png,0.3,TRUE,TRUE,3,0.607670285,red,m,0.1003,alien2,TRUE,2,0.566208679,102,1,0.7,x,0.427799999,0,211,211,211,1,0.3,0.7,0.6,0.4,TRUE,,,,,,,,,,,,,,,,,,,,,,,,,,,,,,,,,
12052023ny,2023-12-05_14h04.16.198,two_step_task_legacy,2022.2.4,Win32,60.09254252,12,learning,0,resources/alien2_norm.png,0.7,resources/alien1_norm.png,0.3,TRUE,TRUE,3,0.195145873,red,m,0.2664,alien2,TRUE,2,0.079696024,103,1,0.7,x,0.367,0,212,212,212,1,0.3,0.7,0.6,0.4,TRUE,,,,,,,,,,,,,,,,,,,,,,,,,,,,,,,,,
12052023ny,2023-12-05_14h04.16.198,two_step_task_legacy,2022.2.4,Win32,60.09254252,12,learning,0,resources/alien2_norm.png,0.7,resources/alien1_norm.png,0.3,TRUE,TRUE,3,0.048694511,red,m,0.6825,alien2,TRUE,2,0.603582205,104,1,0.7,x,0.366900001,0,213,213,213,1,0.3,0.7,0.6,0.4,TRUE,,,,,,,,,,,,,,,,,,,,,,,,,,,,,,,,,
12052023ny,2023-12-05_14h04.16.198,two_step_task_legacy,2022.2.4,Win32,60.09254252,12,learning,0,resources/alien1_norm.png,0.3,resources/alien2_norm.png,0.7,TRUE,TRUE,3,0.637469674,red,m,0.2725,alien2,TRUE,2,0.12779535,105,1,0.7,m,0.4662,0,214,214,214,1,0.3,0.7,0.6,0.4,FALSE,,,,,,,,,,,,,,,,,,,,,,,,,,,,,,,,,
12052023ny,2023-12-05_14h04.16.198,two_step_task_legacy,2022.2.4,Win32,60.09254252,12,learning,1,resources/alien4_norm.png,0.4,resources/alien3_norm.png,0.6,TRUE,TRUE,2,0.86841373,purple,m,0.239,alien3,TRUE,2,0.152118068,106,1,0.6,m,1.3637,0,215,215,215,1,0.3,0.7,0.6,0.4,TRUE,,,,,,,,,,,,,,,,,,,,,,,,,,,,,,,,,
12052023ny,2023-12-05_14h04.16.198,two_step_task_legacy,2022.2.4,Win32,60.09254252,12,learning,1,resources/alien4_norm.png,0.4,resources/alien3_norm.png,0.6,TRUE,TRUE,2,0.962747223,purple,m,0.233599999,alien3,TRUE,2,0.493168555,107,1,0.6,m,0.8322,0,216,216,216,1,0.3,0.7,0.6,0.4,TRUE,,,,,,,,,,,,,,,,,,,,,,,,,,,,,,,,,
12052023ny,2023-12-05_14h04.16.198,two_step_task_legacy,2022.2.4,Win32,60.09254252,12,learning,1,resources/alien3_norm.png,0.6,resources/alien4_norm.png,0.4,TRUE,TRUE,2,0.876709867,purple,m,0.25,alien3,TRUE,2,0.046279381,108,1,0.6,x,0.7827,0,217,217,217,1,0.3,0.7,0.6,0.4,FALSE,,,,,,,,,,,,,,,,,,,,,,,,,,,,,,,,,
12052023ny,2023-12-05_14h04.16.198,two_step_task_legacy,2022.2.4,Win32,60.09254252,12,learning,0,resources/alien3_norm.png,0.6,resources/alien4_norm.png,0.4,TRUE,TRUE,2,0.230983712,purple,x,0.3165,alien3,TRUE,3,0.655553292,108,0,0.6,x,0.4329,0,218,218,218,1,0.3,0.7,0.6,0.4,FALSE,,,,,,,,,,,,,,,,,,,,,,,,,,,,,,,,,
12052023ny,2023-12-05_14h04.16.198,two_step_task_legacy,2022.2.4,Win32,60.09254252,12,learning,0,resources/alien3_norm.png,0.6,resources/alien4_norm.png,0.4,TRUE,TRUE,2,0.253188117,purple,x,0.2501,alien3,TRUE,2,0.187177275,109,1,0.6,x,0.4222,0,219,219,219,1,0.3,0.7,0.6,0.4,FALSE,,,,,,,,,,,,,,,,,,,,,,,,,,,,,,,,,
12052023ny,2023-12-05_14h04.16.198,two_step_task_legacy,2022.2.4,Win32,60.09254252,12,learning,0,resources/alien3_norm.png,0.6,resources/alien4_norm.png,0.4,TRUE,TRUE,2,0.237559238,purple,x,0.2168,alien3,TRUE,3,0.928043365,109,0,0.6,x,0.404099999,0,220,220,220,1,0.3,0.7,0.6,0.4,FALSE,,,,,,,,,,,,,,,,,,,,,,,,,,,,,,,,,
12052023ny,2023-12-05_14h04.16.198,two_step_task_legacy,2022.2.4,Win32,60.09254252,12,learning,0,resources/alien3_norm.png,0.6,resources/alien4_norm.png,0.4,TRUE,TRUE,2,0.615888631,purple,x,0.2167,alien3,TRUE,2,0.270819927,110,1,0.6,x,0.4995,0,221,221,221,1,0.3,0.7,0.6,0.4,FALSE,,,,,,,,,,,,,,,,,,,,,,,,,,,,,,,,,
12052023ny,2023-12-05_14h04.16.198,two_step_task_legacy,2022.2.4,Win32,60.09254252,12,learning,0,resources/alien3_norm.png,0.6,resources/alien4_norm.png,0.4,TRUE,TRUE,2,0.260911656,purple,x,0.216599999,alien3,TRUE,2,0.549982017,111,1,0.6,x,0.3997,0,222,222,222,1,0.3,0.7,0.6,0.4,FALSE,,,,,,,,,,,,,,,,,,,,,,,,,,,,,,,,,
12052023ny,2023-12-05_14h04.16.198,two_step_task_legacy,2022.2.4,Win32,60.09254252,12,learning,0,resources/alien3_norm.png,0.6,resources/alien4_norm.png,0.4,TRUE,TRUE,2,0.565155073,purple,x,0.2499,alien3,TRUE,2,0.010124597,112,1,0.6,x,0.3165,0,223,223,223,1,0.3,0.7,0.6,0.4,FALSE,,,,,,,,,,,,,,,,,,,,,,,,,,,,,,,,,
12052023ny,2023-12-05_14h04.16.198,two_step_task_legacy,2022.2.4,Win32,60.09254252,12,learning,0,resources/alien3_norm.png,0.6,resources/alien4_norm.png,0.4,TRUE,TRUE,2,0.350156107,purple,x,0.2165,alien3,TRUE,3,0.821102564,112,0,0.6,x,0.4665,0,224,224,224,1,0.3,0.7,0.6,0.4,FALSE,,,,,,,,,,,,,,,,,,,,,,,,,,,,,,,,,
12052023ny,2023-12-05_14h04.16.198,two_step_task_legacy,2022.2.4,Win32,60.09254252,12,learning,1,resources/alien1_norm.png,0.3,resources/alien2_norm.png,0.7,TRUE,TRUE,3,0.786069782,red,x,0.232900001,alien2,TRUE,3,0.98625325,112,0,0.7,m,0.696299999,0,225,225,225,1,0.3,0.7,0.6,0.4,FALSE,,,,,,,,,,,,,,,,,,,,,,,,,,,,,,,,,
12052023ny,2023-12-05_14h04.16.198,two_step_task_legacy,2022.2.4,Win32,60.09254252,12,learning,0,resources/alien2_norm.png,0.7,resources/alien1_norm.png,0.3,TRUE,TRUE,3,0.669384911,red,m,0.250599999,alien1,TRUE,3,0.986502131,112,0,0.3,m,0.465900001,0,226,226,226,1,0.3,0.7,0.6,0.4,TRUE,,,,,,,,,,,,,,,,,,,,,,,,,,,,,,,,,
12052023ny,2023-12-05_14h04.16.198,two_step_task_legacy,2022.2.4,Win32,60.09254252,12,learning,0,resources/alien3_norm.png,0.6,resources/alien4_norm.png,0.4,TRUE,TRUE,2,0.46499683,purple,x,0.1831,alien3,TRUE,3,0.928512978,112,0,0.6,x,0.3899,0,227,227,227,1,0.3,0.7,0.6,0.4,FALSE,,,,,,,,,,,,,,,,,,,,,,,,,,,,,,,,,
12052023ny,2023-12-05_14h04.16.198,two_step_task_legacy,2022.2.4,Win32,60.09254252,12,learning,1,resources/alien1_norm.png,0.3,resources/alien2_norm.png,0.7,TRUE,TRUE,3,0.741413016,red,x,0.249900001,alien1,TRUE,3,0.447422163,112,0,0.3,x,1.0814,0,228,228,228,1,0.3,0.7,0.6,0.4,FALSE,,,,,,,,,,,,,,,,,,,,,,,,,,,,,,,,,
12052023ny,2023-12-05_14h04.16.198,two_step_task_legacy,2022.2.4,Win32,60.09254252,12,learning,0,resources/alien3_norm.png,0.6,resources/alien4_norm.png,0.4,TRUE,TRUE,2,0.051243873,purple,x,0.2667,alien4,TRUE,2,0.068111233,113,1,0.4,m,0.5966,0,229,229,229,1,0.3,0.7,0.6,0.4,FALSE,,,,,,,,,,,,,,,,,,,,,,,,,,,,,,,,,
12052023ny,2023-12-05_14h04.16.198,two_step_task_legacy,2022.2.4,Win32,60.09254252,12,learning,0,resources/alien3_norm.png,0.6,resources/alien4_norm.png,0.4,TRUE,TRUE,2,0.672193013,purple,x,0.100200001,alien4,TRUE,2,0.260120511,114,1,0.4,m,0.466099999,0,230,230,230,1,0.3,0.7,0.6,0.4,FALSE,,,,,,,,,,,,,,,,,,,,,,,,,,,,,,,,,
12052023ny,2023-12-05_14h04.16.198,two_step_task_legacy,2022.2.4,Win32,60.09254252,12,learning,1,resources/alien2_norm.png,0.7,resources/alien1_norm.png,0.3,TRUE,TRUE,3,0.711009663,red,x,0.266,alien1,TRUE,3,0.303431716,114,0,0.3,m,0.869799999,0,231,231,231,1,0.3,0.7,0.6,0.4,TRUE,,,,,,,,,,,,,,,,,,,,,,,,,,,,,,,,,
12052023ny,2023-12-05_14h04.16.198,two_step_task_legacy,2022.2.4,Win32,60.09254252,12,learning,1,resources/alien1_norm.png,0.3,resources/alien2_norm.png,0.7,TRUE,TRUE,3,0.78701272,red,x,0.1003,alien2,TRUE,2,0.423569788,115,1,0.7,m,0.9154,0,232,232,232,1,0.3,0.7,0.6,0.4,FALSE,,,,,,,,,,,,,,,,,,,,,,,,,,,,,,,,,
12052023ny,2023-12-05_14h04.16.198,two_step_task_legacy,2022.2.4,Win32,60.09254252,12,learning,1,resources/alien2_norm.png,0.7,resources/alien1_norm.png,0.3,TRUE,TRUE,3,0.760728288,red,x,0.067,alien2,TRUE,2,0.561463729,116,1,0.7,x,0.8684,0,233,233,233,1,0.3,0.7,0.6,0.4,TRUE,,,,,,,,,,,,,,,,,,,,,,,,,,,,,,,,,
12052023ny,2023-12-05_14h04.16.198,two_step_task_legacy,2022.2.4,Win32,60.09254252,12,learning,0,resources/alien4_norm.png,0.4,resources/alien3_norm.png,0.6,TRUE,TRUE,2,0.218533931,purple,x,0.25,alien4,TRUE,3,0.467940785,116,0,0.4,x,0.5009,0,234,234,234,1,0.3,0.7,0.6,0.4,TRUE,,,,,,,,,,,,,,,,,,,,,,,,,,,,,,,,,
12052023ny,2023-12-05_14h04.16.198,two_step_task_legacy,2022.2.4,Win32,60.09254252,12,learning,0,resources/alien1_norm.png,0.3,resources/alien2_norm.png,0.7,TRUE,TRUE,3,0.199846202,red,m,0.3334,alien2,TRUE,3,0.937391122,116,0,0.7,m,0.863099999,0,235,235,235,1,0.3,0.7,0.6,0.4,FALSE,,,,,,,,,,,,,,,,,,,,,,,,,,,,,,,,,
12052023ny,2023-12-05_14h04.16.198,two_step_task_legacy,2022.2.4,Win32,60.09254252,12,learning,0,resources/alien1_norm.png,0.3,resources/alien2_norm.png,0.7,TRUE,TRUE,3,0.438263378,red,m,0.6159,alien2,TRUE,3,0.70132949,116,0,0.7,m,0.4388,0,236,236,236,1,0.3,0.7,0.6,0.4,FALSE,,,,,,,,,,,,,,,,,,,,,,,,,,,,,,,,,
12052023ny,2023-12-05_14h04.16.198,two_step_task_legacy,2022.2.4,Win32,60.09254252,12,learning,0,resources/alien4_norm.png,0.4,resources/alien3_norm.png,0.6,TRUE,TRUE,2,0.262396753,purple,x,0.2167,alien4,TRUE,3,0.916768325,116,0,0.4,x,0.505299999,0,237,237,237,1,0.3,0.7,0.6,0.4,TRUE,,,,,,,,,,,,,,,,,,,,,,,,,,,,,,,,,
12052023ny,2023-12-05_14h04.16.198,two_step_task_legacy,2022.2.4,Win32,60.09254252,12,learning,0,resources/alien2_norm.png,0.7,resources/alien1_norm.png,0.3,TRUE,TRUE,3,0.275531761,red,m,0.0862,alien1,TRUE,3,0.804411218,116,0,0.3,m,0.461799999,0,238,238,238,1,0.3,0.7,0.6,0.4,TRUE,,,,,,,,,,,,,,,,,,,,,,,,,,,,,,,,,
12052023ny,2023-12-05_14h04.16.198,two_step_task_legacy,2022.2.4,Win32,60.09254252,12,learning,0,resources/alien3_norm.png,0.6,resources/alien4_norm.png,0.4,TRUE,TRUE,2,0.50956798,purple,x,0.22,alien4,TRUE,2,0.043921145,117,1,0.4,m,0.5691,0,239,239,239,1,0.3,0.7,0.6,0.4,FALSE,,,,,,,,,,,,,,,,,,,,,,,,,,,,,,,,,
12052023ny,2023-12-05_14h04.16.198,two_step_task_legacy,2022.2.4,Win32,60.09254252,12,learning,0,resources/alien3_norm.png,0.6,resources/alien4_norm.png,0.4,TRUE,TRUE,2,0.267812229,purple,x,0.217599999,alien4,TRUE,2,0.246499472,118,1,0.4,m,0.4495,0,240,240,240,1,0.3,0.7,0.6,0.4,FALSE,,,,,,,,,,,,,,,,,,,,,,,,,,,,,,,,,
12052023ny,2023-12-05_14h04.16.198,two_step_task_legacy,2022.2.4,Win32,60.09254252,12,learning,0,resources/alien3_norm.png,0.6,resources/alien4_norm.png,0.4,TRUE,TRUE,2,0.469974043,purple,x,0.2197,alien4,TRUE,3,0.598103865,118,0,0.4,m,0.5158,0,241,241,241,1,0.3,0.7,0.6,0.4,FALSE,,,,,,,,,,,,,,,,,,,,,,,,,,,,,,,,,
12052023ny,2023-12-05_14h04.16.198,two_step_task_legacy,2022.2.4,Win32,60.09254252,12,learning,0,resources/alien3_norm.png,0.6,resources/alien4_norm.png,0.4,TRUE,TRUE,2,0.462641071,purple,x,0.083700001,alien4,TRUE,3,0.603963788,118,0,0.4,m,0.4334,0,242,242,242,1,0.3,0.7,0.6,0.4,FALSE,,,,,,,,,,,,,,,,,,,,,,,,,,,,,,,,,
12052023ny,2023-12-05_14h04.16.198,two_step_task_legacy,2022.2.4,Win32,60.09254252,12,learning,0,resources/alien3_norm.png,0.6,resources/alien4_norm.png,0.4,TRUE,TRUE,2,0.39152724,purple,x,0.4167,alien3,TRUE,2,0.081359734,119,1,0.6,x,0.3995,0,243,243,243,1,0.3,0.7,0.6,0.4,FALSE,,,,,,,,,,,,,,,,,,,,,,,,,,,,,,,,,
12052023ny,2023-12-05_14h04.16.198,two_step_task_legacy,2022.2.4,Win32,60.09254252,12,learning,0,resources/alien4_norm.png,0.4,resources/alien3_norm.png,0.6,TRUE,TRUE,2,0.530661102,purple,x,0.2492,alien3,TRUE,3,0.997808865,119,0,0.6,m,0.5664,0,244,244,244,1,0.3,0.7,0.6,0.4,TRUE,,,,,,,,,,,,,,,,,,,,,,,,,,,,,,,,,
12052023ny,2023-12-05_14h04.16.198,two_step_task_legacy,2022.2.4,Win32,60.09254252,12,learning,0,resources/alien3_norm.png,0.6,resources/alien4_norm.png,0.4,TRUE,TRUE,2,0.058728274,purple,x,0.25,alien3,TRUE,2,0.510979587,120,1,0.6,x,0.5812,0,245,245,245,1,0.3,0.7,0.6,0.4,FALSE,,,,,,,,,,,,,,,,,,,,,,,,,,,,,,,,,
12052023ny,2023-12-05_14h04.16.198,two_step_task_legacy,2022.2.4,Win32,60.09254252,12,learning,0,resources/alien3_norm.png,0.6,resources/alien4_norm.png,0.4,TRUE,TRUE,2,0.541842822,purple,x,0.1338,alien3,TRUE,3,0.72185763,120,0,0.6,x,0.4999,0,246,246,246,1,0.3,0.7,0.6,0.4,FALSE,,,,,,,,,,,,,,,,,,,,,,,,,,,,,,,,,
12052023ny,2023-12-05_14h04.16.198,two_step_task_legacy,2022.2.4,Win32,60.09254252,12,learning,1,resources/alien1_norm.png,0.3,resources/alien2_norm.png,0.7,TRUE,TRUE,3,0.861596576,red,x,0.2711,alien2,TRUE,2,0.508134115,121,1,0.7,m,0.8568,0,247,247,247,1,0.3,0.7,0.6,0.4,FALSE,,,,,,,,,,,,,,,,,,,,,,,,,,,,,,,,,
12052023ny,2023-12-05_14h04.16.198,two_step_task_legacy,2022.2.4,Win32,60.09254252,12,learning,1,resources/alien3_norm.png,0.6,resources/alien4_norm.png,0.4,TRUE,TRUE,2,0.800992677,purple,m,0.1007,alien4,TRUE,2,0.372919925,122,1,0.4,m,1.2393,0,248,248,248,1,0.3,0.7,0.6,0.4,FALSE,,,,,,,,,,,,,,,,,,,,,,,,,,,,,,,,,
12052023ny,2023-12-05_14h04.16.198,two_step_task_legacy,2022.2.4,Win32,60.09254252,12,learning,0,resources/alien1_norm.png,0.3,resources/alien2_norm.png,0.7,TRUE,TRUE,3,0.341593953,red,m,0.1535,alien2,TRUE,2,0.203768639,123,1,0.7,m,0.3757,0,249,249,249,1,0.3,0.7,0.6,0.4,FALSE,,,,,,,,,,,,,,,,,,,,,,,,,,,,,,,,,
12052023ny,2023-12-05_14h04.16.198,two_step_task_legacy,2022.2.4,Win32,60.09254252,12,learning,1,resources/alien4_norm.png,0.4,resources/alien3_norm.png,0.6,TRUE,TRUE,2,0.993183448,purple,m,0.1005,none,FALSE,NA,,123,0,0.7,,,0,250,250,250,1,0.3,0.7,0.6,0.4,TRUE,,,,,,,,,,,,,,,,,,,,,,,,,,,,,,,,,
12052023ny,2023-12-05_14h04.16.198,two_step_task_legacy,2022.2.4,Win32,60.09254252,12,learning,1,resources/alien3_norm.png,0.6,resources/alien4_norm.png,0.4,TRUE,TRUE,2,0.893992088,purple,m,1.1483,alien4,TRUE,2,0.102718234,124,1,0.4,m,0.533,0,251,251,251,1,0.3,0.7,0.6,0.4,FALSE,,,,,,,,,,,,,,,,,,,,,,,,,,,,,,,,,
12052023ny,2023-12-05_14h04.16.198,two_step_task_legacy,2022.2.4,Win32,60.09254252,12,learning,0,resources/alien2_norm.png,0.7,resources/alien1_norm.png,0.3,TRUE,TRUE,3,0.660108607,red,m,0.150299999,alien2,TRUE,2,0.097476681,125,1,0.7,x,0.5646,0,252,252,252,1,0.3,0.7,0.6,0.4,TRUE,,,,,,,,,,,,,,,,,,,,,,,,,,,,,,,,,
12052023ny,2023-12-05_14h04.16.198,two_step_task_legacy,2022.2.4,Win32,60.09254252,12,learning,0,resources/alien1_norm.png,0.3,resources/alien2_norm.png,0.7,TRUE,TRUE,3,0.153759788,red,m,0.1837,alien2,TRUE,3,0.879980787,125,0,0.7,m,0.6159,0,253,253,253,1,0.3,0.7,0.6,0.4,FALSE,,,,,,,,,,,,,,,,,,,,,,,,,,,,,,,,,
12052023ny,2023-12-05_14h04.16.198,two_step_task_legacy,2022.2.4,Win32,60.09254252,12,learning,0,resources/alien4_norm.png,0.4,resources/alien3_norm.png,0.6,TRUE,TRUE,2,0.005202148,purple,x,0.4163,alien4,TRUE,3,0.442986437,125,0,0.4,x,0.4554,0,254,254,254,1,0.3,0.7,0.6,0.4,TRUE,,,,,,,,,,,,,,,,,,,,,,,,,,,,,,,,,
12052023ny,2023-12-05_14h04.16.198,two_step_task_legacy,2022.2.4,Win32,60.09254252,12,learning,0,resources/alien4_norm.png,0.4,resources/alien3_norm.png,0.6,TRUE,TRUE,2,0.49490071,purple,x,0.449700001,alien4,TRUE,3,0.813696131,125,0,0.4,x,0.5156,0,255,255,255,1,0.3,0.7,0.6,0.4,TRUE,,,,,,,,,,,,,,,,,,,,,,,,,,,,,,,,,
12052023ny,2023-12-05_14h04.16.198,two_step_task_legacy,2022.2.4,Win32,60.09254252,12,learning,1,resources/alien2_norm.png,0.7,resources/alien1_norm.png,0.3,TRUE,TRUE,3,0.835240529,red,x,0.2335,alien2,TRUE,2,0.066195101,126,1,0.7,x,1.0462,0,256,256,256,1,0.3,0.7,0.6,0.4,TRUE,,,,,,,,,,,,,,,,,,,,,,,,,,,,,,,,,
12052023ny,2023-12-05_14h04.16.198,two_step_task_legacy,2022.2.4,Win32,60.09254252,12,learning,0,resources/alien2_norm.png,0.7,resources/alien1_norm.png,0.3,TRUE,TRUE,3,0.426040728,red,m,0.2676,alien2,TRUE,3,0.818029603,126,0,0.7,x,0.4718,0,257,257,257,1,0.3,0.7,0.6,0.4,TRUE,,,,,,,,,,,,,,,,,,,,,,,,,,,,,,,,,
12052023ny,2023-12-05_14h04.16.198,two_step_task_legacy,2022.2.4,Win32,60.09254252,12,learning,0,resources/alien2_norm.png,0.7,resources/alien1_norm.png,0.3,TRUE,TRUE,3,0.429895261,red,m,0.2,alien2,TRUE,2,0.100743491,127,1,0.7,x,0.4659,0,258,258,258,1,0.3,0.7,0.6,0.4,TRUE,,,,,,,,,,,,,,,,,,,,,,,,,,,,,,,,,
12052023ny,2023-12-05_14h04.16.198,two_step_task_legacy,2022.2.4,Win32,60.09254252,12,learning,0,resources/alien1_norm.png,0.3,resources/alien2_norm.png,0.7,TRUE,TRUE,3,0.611525526,red,m,0.2509,alien2,TRUE,3,0.89435272,127,0,0.7,m,0.6385,0,259,259,259,1,0.3,0.7,0.6,0.4,FALSE,,,,,,,,,,,,,,,,,,,,,,,,,,,,,,,,,
12052023ny,2023-12-05_14h04.16.198,two_step_task_legacy,2022.2.4,Win32,60.09254252,12,learning,0,resources/alien1_norm.png,0.3,resources/alien2_norm.png,0.7,TRUE,TRUE,3,0.183982532,red,m,0.233,alien2,TRUE,2,0.004296278,128,1,0.7,m,0.4993,0,260,260,260,1,0.3,0.7,0.6,0.4,FALSE,,,,,,,,,,,,,,,,,,,,,,,,,,,,,,,,,
12052023ny,2023-12-05_14h04.16.198,two_step_task_legacy,2022.2.4,Win32,60.09254252,12,learning,0,resources/alien1_norm.png,0.3,resources/alien2_norm.png,0.7,TRUE,TRUE,3,0.456056876,red,m,0.1501,alien2,TRUE,2,0.63106511,129,1,0.7,m,0.3996,0,261,261,261,1,0.3,0.7,0.6,0.4,FALSE,,,,,,,,,,,,,,,,,,,,,,,,,,,,,,,,,
12052023ny,2023-12-05_14h04.16.198,two_step_task_legacy,2022.2.4,Win32,60.09254252,12,learning,0,resources/alien1_norm.png,0.3,resources/alien2_norm.png,0.7,TRUE,TRUE,3,0.655339414,red,m,0.2327,alien2,TRUE,2,0.579826185,130,1,0.7,m,0.4331,0,262,262,262,1,0.3,0.7,0.6,0.4,FALSE,,,,,,,,,,,,,,,,,,,,,,,,,,,,,,,,,
12052023ny,2023-12-05_14h04.16.198,two_step_task_legacy,2022.2.4,Win32,60.09254252,12,learning,1,resources/alien3_norm.png,0.6,resources/alien4_norm.png,0.4,TRUE,TRUE,2,0.796816226,purple,m,0.25,alien3,TRUE,2,0.193267635,131,1,0.6,x,0.9472,0,263,263,263,1,0.3,0.7,0.6,0.4,FALSE,,,,,,,,,,,,,,,,,,,,,,,,,,,,,,,,,
12052023ny,2023-12-05_14h04.16.198,two_step_task_legacy,2022.2.4,Win32,60.09254252,12,learning,0,resources/alien4_norm.png,0.4,resources/alien3_norm.png,0.6,TRUE,TRUE,2,0.382039738,purple,x,0.222599999,alien3,TRUE,2,0.292514456,132,1,0.6,m,0.5659,0,264,264,264,1,0.3,0.7,0.6,0.4,TRUE,,,,,,,,,,,,,,,,,,,,,,,,,,,,,,,,,
12052023ny,2023-12-05_14h04.16.198,two_step_task_legacy,2022.2.4,Win32,60.09254252,12,learning,0,resources/alien3_norm.png,0.6,resources/alien4_norm.png,0.4,TRUE,TRUE,2,0.282903241,purple,x,0.5495,alien3,TRUE,2,0.32584528,133,1,0.6,x,0.521900001,0,265,265,265,1,0.3,0.7,0.6,0.4,FALSE,,,,,,,,,,,,,,,,,,,,,,,,,,,,,,,,,
12052023ny,2023-12-05_14h04.16.198,two_step_task_legacy,2022.2.4,Win32,60.09254252,12,learning,0,resources/alien3_norm.png,0.6,resources/alien4_norm.png,0.4,TRUE,TRUE,2,0.580165215,purple,x,0.2831,alien3,TRUE,3,0.611551327,133,0,0.6,x,0.511,0,266,266,266,1,0.3,0.7,0.6,0.4,FALSE,,,,,,,,,,,,,,,,,,,,,,,,,,,,,,,,,
12052023ny,2023-12-05_14h04.16.198,two_step_task_legacy,2022.2.4,Win32,60.09254252,12,learning,0,resources/alien3_norm.png,0.6,resources/alien4_norm.png,0.4,TRUE,TRUE,2,0.693968859,purple,x,0.2453,alien3,TRUE,2,0.24563075,134,1,0.6,x,0.4331,0,267,267,267,1,0.3,0.7,0.6,0.4,FALSE,,,,,,,,,,,,,,,,,,,,,,,,,,,,,,,,,
12052023ny,2023-12-05_14h04.16.198,two_step_task_legacy,2022.2.4,Win32,60.09254252,12,learning,0,resources/alien4_norm.png,0.4,resources/alien3_norm.png,0.6,TRUE,TRUE,2,0.685952798,purple,x,0.0735,alien4,TRUE,3,0.698177235,134,0,0.4,x,0.3996,0,268,268,268,1,0.3,0.7,0.6,0.4,TRUE,,,,,,,,,,,,,,,,,,,,,,,,,,,,,,,,,
12052023ny,2023-12-05_14h04.16.198,two_step_task_legacy,2022.2.4,Win32,60.09254252,12,learning,1,resources/alien1_norm.png,0.3,resources/alien2_norm.png,0.7,TRUE,TRUE,3,0.887278794,red,x,0.233,alien2,TRUE,2,0.667671082,135,1,0.7,m,0.6826,0,269,269,269,1,0.3,0.7,0.6,0.4,FALSE,,,,,,,,,,,,,,,,,,,,,,,,,,,,,,,,,
12052023ny,2023-12-05_14h04.16.198,two_step_task_legacy,2022.2.4,Win32,60.09254252,12,learning,0,resources/alien1_norm.png,0.3,resources/alien2_norm.png,0.7,TRUE,TRUE,3,0.557973239,red,m,0.2993,alien2,TRUE,2,0.474897786,136,1,0.7,m,0.3996,0,270,270,270,1,0.3,0.7,0.6,0.4,FALSE,,,,,,,,,,,,,,,,,,,,,,,,,,,,,,,,,
12052023ny,2023-12-05_14h04.16.198,two_step_task_legacy,2022.2.4,Win32,60.09254252,12,learning,0,resources/alien2_norm.png,0.7,resources/alien1_norm.png,0.3,TRUE,TRUE,3,0.243630741,red,m,0.249099999,alien1,TRUE,3,0.589457729,136,0,0.3,m,0.4324,0,271,271,271,1,0.3,0.7,0.6,0.4,TRUE,,,,,,,,,,,,,,,,,,,,,,,,,,,,,,,,,
12052023ny,2023-12-05_14h04.16.198,two_step_task_legacy,2022.2.4,Win32,60.09254252,12,learning,1,resources/alien4_norm.png,0.4,resources/alien3_norm.png,0.6,TRUE,TRUE,2,0.713753237,purple,m,0.3165,alien3,TRUE,2,0.482979102,137,1,0.6,m,0.918599999,0,272,272,272,1,0.3,0.7,0.6,0.4,TRUE,,,,,,,,,,,,,,,,,,,,,,,,,,,,,,,,,
12052023ny,2023-12-05_14h04.16.198,two_step_task_legacy,2022.2.4,Win32,60.09254252,12,learning,0,resources/alien2_norm.png,0.7,resources/alien1_norm.png,0.3,TRUE,TRUE,3,0.256285256,red,m,0.2989,alien2,TRUE,3,0.793900125,137,0,0.7,x,0.521700001,0,273,273,273,1,0.3,0.7,0.6,0.4,TRUE,,,,,,,,,,,,,,,,,,,,,,,,,,,,,,,,,
12052023ny,2023-12-05_14h04.16.198,two_step_task_legacy,2022.2.4,Win32,60.09254252,12,learning,0,resources/alien3_norm.png,0.6,resources/alien4_norm.png,0.4,TRUE,TRUE,2,0.669942394,purple,x,0.161799999,alien3,TRUE,3,0.813953124,137,0,0.6,x,0.488900001,0,274,274,274,1,0.3,0.7,0.6,0.4,FALSE,,,,,,,,,,,,,,,,,,,,,,,,,,,,,,,,,
12052023ny,2023-12-05_14h04.16.198,two_step_task_legacy,2022.2.4,Win32,60.09254252,12,learning,0,resources/alien4_norm.png,0.4,resources/alien3_norm.png,0.6,TRUE,TRUE,2,0.067979862,purple,x,0.281900001,alien3,TRUE,2,0.548014677,138,1,0.6,m,0.4883,0,275,275,275,1,0.3,0.7,0.6,0.4,TRUE,,,,,,,,,,,,,,,,,,,,,,,,,,,,,,,,,
12052023ny,2023-12-05_14h04.16.198,two_step_task_legacy,2022.2.4,Win32,60.09254252,12,learning,0,resources/alien3_norm.png,0.6,resources/alien4_norm.png,0.4,TRUE,TRUE,2,0.410564656,purple,x,0.2665,alien3,TRUE,2,0.437854717,139,1,0.6,x,0.3713,0,276,276,276,1,0.3,0.7,0.6,0.4,FALSE,,,,,,,,,,,,,,,,,,,,,,,,,,,,,,,,,
12052023ny,2023-12-05_14h04.16.198,two_step_task_legacy,2022.2.4,Win32,60.09254252,12,learning,0,resources/alien3_norm.png,0.6,resources/alien4_norm.png,0.4,TRUE,TRUE,2,0.219679013,purple,x,0.2995,alien3,TRUE,3,0.80626041,139,0,0.6,x,0.6828,0,277,277,277,1,0.3,0.7,0.6,0.4,FALSE,,,,,,,,,,,,,,,,,,,,,,,,,,,,,,,,,
12052023ny,2023-12-05_14h04.16.198,two_step_task_legacy,2022.2.4,Win32,60.09254252,12,learning,0,resources/alien4_norm.png,0.4,resources/alien3_norm.png,0.6,TRUE,TRUE,2,0.659160897,purple,x,0.4496,alien3,TRUE,3,0.929804031,139,0,0.6,m,0.416299999,0,278,278,278,1,0.3,0.7,0.6,0.4,TRUE,,,,,,,,,,,,,,,,,,,,,,,,,,,,,,,,,
12052023ny,2023-12-05_14h04.16.198,two_step_task_legacy,2022.2.4,Win32,60.09254252,12,learning,1,resources/alien3_norm.png,0.6,resources/alien4_norm.png,0.4,TRUE,TRUE,2,0.988590924,purple,m,0.1501,alien4,TRUE,3,0.418889221,139,0,0.4,m,0.9652,0,279,279,279,1,0.3,0.7,0.6,0.4,FALSE,,,,,,,,,,,,,,,,,,,,,,,,,,,,,,,,,
12052023ny,2023-12-05_14h04.16.198,two_step_task_legacy,2022.2.4,Win32,60.09254252,12,learning,0,resources/alien1_norm.png,0.3,resources/alien2_norm.png,0.7,TRUE,TRUE,3,0.561413181,red,m,0.2666,alien1,TRUE,2,0.280360298,140,1,0.3,x,0.7304,0,280,280,280,1,0.3,0.7,0.6,0.4,FALSE,,,,,,,,,,,,,,,,,,,,,,,,,,,,,,,,,
12052023ny,2023-12-05_14h04.16.198,two_step_task_legacy,2022.2.4,Win32,60.09254252,12,learning,0,resources/alien1_norm.png,0.3,resources/alien2_norm.png,0.7,TRUE,TRUE,3,0.520533598,red,m,0.1997,alien1,TRUE,3,0.460762825,140,0,0.3,x,0.4164,0,281,281,281,1,0.3,0.7,0.6,0.4,FALSE,,,,,,,,,,,,,,,,,,,,,,,,,,,,,,,,,
12052023ny,2023-12-05_14h04.16.198,two_step_task_legacy,2022.2.4,Win32,60.09254252,12,learning,0,resources/alien1_norm.png,0.3,resources/alien2_norm.png,0.7,TRUE,TRUE,3,0.6248812,red,m,0.2499,alien1,TRUE,3,0.675913963,140,0,0.3,x,0.3554,0,282,282,282,1,0.3,0.7,0.6,0.4,FALSE,,,,,,,,,,,,,,,,,,,,,,,,,,,,,,,,,
12052023ny,2023-12-05_14h04.16.198,two_step_task_legacy,2022.2.4,Win32,60.09254252,12,learning,0,resources/alien1_norm.png,0.3,resources/alien2_norm.png,0.7,TRUE,TRUE,3,0.316688823,red,m,0.4325,alien1,TRUE,3,0.376471115,140,0,0.3,x,0.383,0,283,283,283,1,0.3,0.7,0.6,0.4,FALSE,,,,,,,,,,,,,,,,,,,,,,,,,,,,,,,,,
12052023ny,2023-12-05_14h04.16.198,two_step_task_legacy,2022.2.4,Win32,60.09254252,12,learning,0,resources/alien1_norm.png,0.3,resources/alien2_norm.png,0.7,TRUE,TRUE,3,0.568559126,red,m,0.2498,alien2,TRUE,2,0.088124145,141,1,0.7,m,0.8048,0,284,284,284,1,0.3,0.7,0.6,0.4,FALSE,,,,,,,,,,,,,,,,,,,,,,,,,,,,,,,,,
