participant,date,expName,psychopyVersion,OS,frameRate,payoff_list,phase,rare_transition,left_alien,left_probabilty,right_alien,right_probabilty,select_sp,show_alien,rocket_trans,rand_sp,planet,key_resp_exp.keys,key_resp_exp.rt,chosen_alien,select_alien,transmoney,rand_money,totalgold,trialgain,probs,key_resp_exp_alien.keys,key_resp_exp_alien.rt,loop_exp.thisRepN,loop_exp.thisTrialN,loop_exp.thisN,loop_exp.thisIndex,loop_exp.ran,p1,p2,p3,p4,flip_sides,static_probability_left,static_probability_right,key_resp_probe.keys,key_resp_probe.rt,accuracy,probe_loop.thisRepN,probe_loop.thisTrialN,probe_loop.thisN,probe_loop.thisIndex,probe_loop.ran,probe_la,probe_ra,key_resp.keys,key_resp.rt,slider.response,slider.rt,post_loop.thisRepN,post_loop.thisTrialN,post_loop.thisN,post_loop.thisIndex,post_loop.ran,text_up,pos_text_up,text_down,pos_img_left_up,left_up_img,right_up_img,left_down_img_1,left_down_img_2,right_down_img_1,right_down_img_2,size,show_slider
1206ny03,2023-12-06_14h08.47.717,two_step_task_legacy,2022.2.4,MacIntel,30.00120005,,,,,,,,,,,,,,,,,,,,,,,,,,,,,,,,,,,,,,,,,,,,,,,,,,,,,,,,,,,,,,,,,,
1206ny03,2023-12-06_14h08.47.717,two_step_task_legacy,2022.2.4,MacIntel,30.00120005,,,,,,,,,,,,,,,,,,,,,,,,,,,,,,,,,,,,,,,,,,,,,,,,,,,,,,,,,,,,,,,,,,
1206ny03,2023-12-06_14h08.47.717,two_step_task_legacy,2022.2.4,MacIntel,30.00120005,,,,,,,,,,,,,,,,,,,,,,,,,,,,,,,,,,,,,,,,,,,,,,,,,,,,,,,,,,,,,,,,,,
1206ny03,2023-12-06_14h08.47.717,two_step_task_legacy,2022.2.4,MacIntel,30.00120005,,,,,,,,,,,,,,,,,,,,,,,,,,,,,,,,,,,,,,,,,,,,,,,,,,,,,,,,,,,,,,,,,,
1206ny03,2023-12-06_14h08.47.717,two_step_task_legacy,2022.2.4,MacIntel,30.00120005,,,,,,,,,,,,,,,,,,,,,,,,,,,,,,,,,,,,,,,,,,,,,,,,,,,,,,,,,,,,,,,,,,
1206ny03,2023-12-06_14h08.47.717,two_step_task_legacy,2022.2.4,MacIntel,30.00120005,,,,,,,,,,,,,,,,,,,,,,,,,,,,,,,,,,,,,,,,,,,,,,,,,,,,,,,,,,,,,,,,,,
1206ny03,2023-12-06_14h08.47.717,two_step_task_legacy,2022.2.4,MacIntel,30.00120005,,,,,,,,,,,,,,,,,,,,,,,,,,,,,,,,,,,,,,,,,,,,,,,,,,,,,,,,,,,,,,,,,,
1206ny03,2023-12-06_14h08.47.717,two_step_task_legacy,2022.2.4,MacIntel,30.00120005,,,,,,,,,,,,,,,,,,,,,,,,,,,,,,,,,,,,,,,,,,,,,,,,,,,,,,,,,,,,,,,,,,
1206ny03,2023-12-06_14h08.47.717,two_step_task_legacy,2022.2.4,MacIntel,30.00120005,,,,,,,,,,,,,,,,,,,,,,,,,,,,,,,,,,,,,,,,,,,,,,,,,,,,,,,,,,,,,,,,,,
1206ny03,2023-12-06_14h08.47.717,two_step_task_legacy,2022.2.4,MacIntel,30.00120005,,,,,,,,,,,,,,,,,,,,,,,,,,,,,,,,,,,,,,,,,,,,,,,,,,,,,,,,,,,,,,,,,,
1206ny03,2023-12-06_14h08.47.717,two_step_task_legacy,2022.2.4,MacIntel,30.00120005,,,,,,,,,,,,,,,,,,,,,,,,,,,,,,,,,,,,,,,,,,,,,,,,,,,,,,,,,,,,,,,,,,
1206ny03,2023-12-06_14h08.47.717,two_step_task_legacy,2022.2.4,MacIntel,30.00120005,23,learning,1,resources/alien1_norm.png,0.601195094,resources/alien2_norm.png,0.412920416,TRUE,TRUE,3,0.927250504,red,x,1.5552,alien1,TRUE,2,0.347636031,1,1,0.601195094,x,0.8251,0,0,0,0,1,0.601195094,0.412920416,0.684167385,0.574881385,FALSE,,,,,,,,,,,,,,,,,,,,,,,,,,,,,,,,,
1206ny03,2023-12-06_14h08.47.717,two_step_task_legacy,2022.2.4,MacIntel,30.00120005,23,learning,0,resources/alien1_norm.png,0.625745146,resources/alien2_norm.png,0.384635186,TRUE,TRUE,3,0.448836539,red,m,0.8391,alien1,TRUE,2,0.26166134,2,1,0.625745146,x,0.6971,0,1,1,1,1,0.625745146,0.384635186,0.686024818,0.598570502,FALSE,,,,,,,,,,,,,,,,,,,,,,,,,,,,,,,,,
1206ny03,2023-12-06_14h08.47.717,two_step_task_legacy,2022.2.4,MacIntel,30.00120005,23,learning,0,resources/alien2_norm.png,0.369840214,resources/alien1_norm.png,0.607315968,TRUE,TRUE,3,0.449226053,red,m,0.4391,alien1,TRUE,3,0.780111785,2,0,0.607315968,m,0.8057,0,2,2,2,1,0.607315968,0.369840214,0.644881976,0.638671366,TRUE,,,,,,,,,,,,,,,,,,,,,,,,,,,,,,,,,
1206ny03,2023-12-06_14h08.47.717,two_step_task_legacy,2022.2.4,MacIntel,30.00120005,23,learning,0,resources/alien2_norm.png,0.370949282,resources/alien1_norm.png,0.553970902,TRUE,TRUE,3,0.22305674,red,m,0.3335,alien2,TRUE,3,0.729347857,2,0,0.370949282,x,0.8142,0,3,3,3,1,0.553970902,0.370949282,0.634096222,0.581962699,TRUE,,,,,,,,,,,,,,,,,,,,,,,,,,,,,,,,,
1206ny03,2023-12-06_14h08.47.717,two_step_task_legacy,2022.2.4,MacIntel,30.00120005,23,learning,1,resources/alien1_norm.png,0.531032286,resources/alien2_norm.png,0.403833123,TRUE,TRUE,3,0.968683893,red,x,0.9655,alien2,TRUE,2,0.190048157,3,1,0.403833123,m,0.8201,0,4,4,4,1,0.531032286,0.403833123,0.641581245,0.574748429,FALSE,,,,,,,,,,,,,,,,,,,,,,,,,,,,,,,,,
1206ny03,2023-12-06_14h08.47.717,two_step_task_legacy,2022.2.4,MacIntel,30.00120005,23,learning,0,resources/alien1_norm.png,0.567657882,resources/alien2_norm.png,0.413108418,TRUE,TRUE,3,0.534929432,red,m,0.7367,alien1,TRUE,3,0.618119377,3,0,0.567657882,x,0.7136,0,5,5,5,1,0.567657882,0.413108418,0.653289635,0.5733101,FALSE,,,,,,,,,,,,,,,,,,,,,,,,,,,,,,,,,
1206ny03,2023-12-06_14h08.47.717,two_step_task_legacy,2022.2.4,MacIntel,30.00120005,23,learning,0,resources/alien3_norm.png,0.710266348,resources/alien4_norm.png,0.526958851,TRUE,TRUE,2,0.247623105,purple,x,0.2842,alien3,TRUE,2,0.212494086,4,1,0.710266348,x,0.8115,0,6,6,6,1,0.583224272,0.425080565,0.710266348,0.526958851,FALSE,,,,,,,,,,,,,,,,,,,,,,,,,,,,,,,,,
1206ny03,2023-12-06_14h08.47.717,two_step_task_legacy,2022.2.4,MacIntel,30.00120005,23,learning,1,resources/alien1_norm.png,0.611992163,resources/alien2_norm.png,0.442857993,TRUE,TRUE,3,0.874637346,red,x,0.3666,alien1,TRUE,3,0.887701636,4,0,0.611992163,x,0.9099,0,7,7,7,1,0.611992163,0.442857993,0.713974974,0.480861246,FALSE,,,,,,,,,,,,,,,,,,,,,,,,,,,,,,,,,
1206ny03,2023-12-06_14h08.47.717,two_step_task_legacy,2022.2.4,MacIntel,30.00120005,23,learning,1,resources/alien2_norm.png,0.431833253,resources/alien1_norm.png,0.612740558,TRUE,TRUE,3,0.988584013,red,x,0.3833,alien1,TRUE,2,0.187859914,5,1,0.612740558,m,1.066,0,8,8,8,1,0.612740558,0.431833253,0.7109314,0.461218259,TRUE,,,,,,,,,,,,,,,,,,,,,,,,,,,,,,,,,
1206ny03,2023-12-06_14h08.47.717,two_step_task_legacy,2022.2.4,MacIntel,30.00120005,23,learning,0,resources/alien3_norm.png,0.702346871,resources/alien4_norm.png,0.482120856,TRUE,TRUE,2,0.470790709,purple,x,0.4542,alien4,TRUE,2,0.284345508,6,1,0.482120856,m,0.7281,0,9,9,9,1,0.608500544,0.441677248,0.702346871,0.482120856,FALSE,,,,,,,,,,,,,,,,,,,,,,,,,,,,,,,,,
1206ny03,2023-12-06_14h08.47.717,two_step_task_legacy,2022.2.4,MacIntel,30.00120005,23,learning,0,resources/alien4_norm.png,0.532346574,resources/alien3_norm.png,0.67633549,TRUE,TRUE,2,0.084235924,purple,x,0.4572,alien4,TRUE,3,0.714846482,6,0,0.532346574,x,0.6056,0,10,10,10,1,0.576141425,0.482625454,0.67633549,0.532346574,TRUE,,,,,,,,,,,,,,,,,,,,,,,,,,,,,,,,,
1206ny03,2023-12-06_14h08.47.717,two_step_task_legacy,2022.2.4,MacIntel,30.00120005,23,learning,0,resources/alien3_norm.png,0.664063745,resources/alien4_norm.png,0.561189193,TRUE,TRUE,2,0.29229914,purple,x,0.3471,alien3,TRUE,3,0.771584418,6,0,0.664063745,x,0.7504,0,11,11,11,1,0.568074544,0.493435168,0.664063745,0.561189193,FALSE,,,,,,,,,,,,,,,,,,,,,,,,,,,,,,,,,
1206ny03,2023-12-06_14h08.47.717,two_step_task_legacy,2022.2.4,MacIntel,30.00120005,23,learning,0,resources/alien2_norm.png,0.510599306,resources/alien1_norm.png,0.580926918,TRUE,TRUE,3,0.639401814,red,m,0.3405,alien1,TRUE,2,0.374543575,7,1,0.580926918,m,0.4765,0,12,12,12,1,0.580926918,0.510599306,0.672411387,0.548431613,TRUE,,,,,,,,,,,,,,,,,,,,,,,,,,,,,,,,,
1206ny03,2023-12-06_14h08.47.717,two_step_task_legacy,2022.2.4,MacIntel,30.00120005,23,learning,0,resources/alien1_norm.png,0.600410731,resources/alien2_norm.png,0.440226577,TRUE,TRUE,3,0.484772027,red,m,0.306,alien1,TRUE,2,0.010206238,8,1,0.600410731,x,0.5183,0,13,13,13,1,0.600410731,0.440226577,0.663587653,0.549136269,FALSE,,,,,,,,,,,,,,,,,,,,,,,,,,,,,,,,,
1206ny03,2023-12-06_14h08.47.717,two_step_task_legacy,2022.2.4,MacIntel,30.00120005,23,learning,0,resources/alien2_norm.png,0.418298082,resources/alien1_norm.png,0.611788063,TRUE,TRUE,3,0.669504146,red,m,0.4335,alien2,TRUE,3,0.534508721,8,0,0.418298082,x,0.3154,0,14,14,14,1,0.611788063,0.418298082,0.666002255,0.524244528,TRUE,,,,,,,,,,,,,,,,,,,,,,,,,,,,,,,,,
1206ny03,2023-12-06_14h08.47.717,two_step_task_legacy,2022.2.4,MacIntel,30.00120005,23,learning,0,resources/alien1_norm.png,0.598923528,resources/alien2_norm.png,0.389234347,TRUE,TRUE,3,0.130082489,red,m,0.3149,alien1,TRUE,2,0.306703794,9,1,0.598923528,x,0.5074,0,15,15,15,1,0.598923528,0.389234347,0.677601938,0.531921129,FALSE,,,,,,,,,,,,,,,,,,,,,,,,,,,,,,,,,
1206ny03,2023-12-06_14h08.47.717,two_step_task_legacy,2022.2.4,MacIntel,30.00120005,23,learning,0,resources/alien2_norm.png,0.442467063,resources/alien1_norm.png,0.573752737,TRUE,TRUE,3,0.487677583,red,m,0.4159,alien1,TRUE,3,0.836020576,9,0,0.573752737,m,0.5834,0,16,16,16,1,0.573752737,0.442467063,0.658528817,0.532800124,TRUE,,,,,,,,,,,,,,,,,,,,,,,,,,,,,,,,,
1206ny03,2023-12-06_14h08.47.717,two_step_task_legacy,2022.2.4,MacIntel,30.00120005,23,learning,1,resources/alien3_norm.png,0.631175471,resources/alien4_norm.png,0.552412586,TRUE,TRUE,2,0.868249828,purple,m,0.4347,alien3,TRUE,2,0.092218652,10,1,0.631175471,x,1.5615,0,17,17,17,1,0.566603312,0.428427973,0.631175471,0.552412586,FALSE,,,,,,,,,,,,,,,,,,,,,,,,,,,,,,,,,
1206ny03,2023-12-06_14h08.47.717,two_step_task_legacy,2022.2.4,MacIntel,30.00120005,23,learning,1,resources/alien3_norm.png,0.604740096,resources/alien4_norm.png,0.565590497,TRUE,TRUE,2,0.716554701,purple,m,0.555,alien3,TRUE,2,0.366043566,11,1,0.604740096,x,0.8417,0,18,18,18,1,0.582114013,0.425646271,0.604740096,0.565590497,FALSE,,,,,,,,,,,,,,,,,,,,,,,,,,,,,,,,,
1206ny03,2023-12-06_14h08.47.717,two_step_task_legacy,2022.2.4,MacIntel,30.00120005,23,learning,0,resources/alien1_norm.png,0.561351389,resources/alien2_norm.png,0.373328893,TRUE,TRUE,3,0.220237949,red,m,0.531,alien1,TRUE,2,0.184481298,12,1,0.561351389,x,0.5348,0,19,19,19,1,0.561351389,0.373328893,0.572334771,0.567031065,FALSE,,,,,,,,,,,,,,,,,,,,,,,,,,,,,,,,,
1206ny03,2023-12-06_14h08.47.717,two_step_task_legacy,2022.2.4,MacIntel,30.00120005,23,learning,1,resources/alien3_norm.png,0.559110428,resources/alien4_norm.png,0.54814434,TRUE,TRUE,2,0.846371628,purple,m,0.2999,alien3,TRUE,2,0.486544316,13,1,0.559110428,x,0.7003,0,20,20,20,1,0.600913787,0.418292814,0.559110428,0.54814434,FALSE,,,,,,,,,,,,,,,,,,,,,,,,,,,,,,,,,
1206ny03,2023-12-06_14h08.47.717,two_step_task_legacy,2022.2.4,MacIntel,30.00120005,23,learning,0,resources/alien1_norm.png,0.583272345,resources/alien2_norm.png,0.422500338,TRUE,TRUE,3,0.650337816,red,m,0.3659,alien1,TRUE,3,0.641491234,13,0,0.583272345,x,0.5449,0,21,21,21,1,0.583272345,0.422500338,0.568809314,0.566532625,FALSE,,,,,,,,,,,,,,,,,,,,,,,,,,,,,,,,,
1206ny03,2023-12-06_14h08.47.717,two_step_task_legacy,2022.2.4,MacIntel,30.00120005,23,learning,1,resources/alien4_norm.png,0.561719482,resources/alien3_norm.png,0.55652811,TRUE,TRUE,2,0.917303074,purple,m,0.3145,alien3,TRUE,3,0.774722521,13,0,0.55652811,m,0.876,0,22,22,22,1,0.609961034,0.394003844,0.55652811,0.561719482,TRUE,,,,,,,,,,,,,,,,,,,,,,,,,,,,,,,,,
1206ny03,2023-12-06_14h08.47.717,two_step_task_legacy,2022.2.4,MacIntel,30.00120005,23,learning,0,resources/alien2_norm.png,0.394651748,resources/alien1_norm.png,0.590272679,TRUE,TRUE,3,0.574315041,red,m,0.367,alien2,TRUE,3,0.993012985,13,0,0.394651748,x,0.7458,0,23,23,23,1,0.590272679,0.394651748,0.555724238,0.544931665,TRUE,,,,,,,,,,,,,,,,,,,,,,,,,,,,,,,,,
1206ny03,2023-12-06_14h08.47.717,two_step_task_legacy,2022.2.4,MacIntel,30.00120005,23,learning,0,resources/alien2_norm.png,0.431176562,resources/alien1_norm.png,0.605617399,TRUE,TRUE,3,0.303039208,red,m,0.2985,alien1,TRUE,2,0.028772438,14,1,0.605617399,m,0.4658,0,24,24,24,1,0.605617399,0.431176562,0.576639227,0.55069953,TRUE,,,,,,,,,,,,,,,,,,,,,,,,,,,,,,,,,
1206ny03,2023-12-06_14h08.47.717,two_step_task_legacy,2022.2.4,MacIntel,30.00120005,23,learning,0,resources/alien2_norm.png,0.420786543,resources/alien1_norm.png,0.613091185,TRUE,TRUE,3,0.034841091,red,m,0.5002,alien1,TRUE,3,0.720991458,14,0,0.613091185,m,0.6233,0,25,25,25,1,0.613091185,0.420786543,0.557257773,0.534624757,TRUE,,,,,,,,,,,,,,,,,,,,,,,,,,,,,,,,,
1206ny03,2023-12-06_14h08.47.717,two_step_task_legacy,2022.2.4,MacIntel,30.00120005,23,learning,1,resources/alien4_norm.png,0.545850614,resources/alien3_norm.png,0.576094467,TRUE,TRUE,2,0.781768497,purple,m,0.4005,alien3,TRUE,3,0.625269033,14,0,0.576094467,m,0.8777,0,26,26,26,1,0.595872609,0.450532133,0.576094467,0.545850614,TRUE,,,,,,,,,,,,,,,,,,,,,,,,,,,,,,,,,
1206ny03,2023-12-06_14h08.47.717,two_step_task_legacy,2022.2.4,MacIntel,30.00120005,23,learning,0,resources/alien1_norm.png,0.643406653,resources/alien2_norm.png,0.477668773,TRUE,TRUE,3,0.329030661,red,m,0.9152,alien1,TRUE,2,0.22836206,15,1,0.643406653,x,0.6434,0,27,27,27,1,0.643406653,0.477668773,0.592199407,0.511001288,FALSE,,,,,,,,,,,,,,,,,,,,,,,,,,,,,,,,,
1206ny03,2023-12-06_14h08.47.717,two_step_task_legacy,2022.2.4,MacIntel,30.00120005,23,learning,1,resources/alien3_norm.png,0.634639671,resources/alien4_norm.png,0.503306501,TRUE,TRUE,2,0.943662122,purple,m,0.5007,alien3,TRUE,2,0.360512208,16,1,0.634639671,x,0.8147,0,28,28,28,1,0.627060866,0.482589761,0.634639671,0.503306501,FALSE,,,,,,,,,,,,,,,,,,,,,,,,,,,,,,,,,
1206ny03,2023-12-06_14h08.47.717,two_step_task_legacy,2022.2.4,MacIntel,30.00120005,23,learning,0,resources/alien1_norm.png,0.659503493,resources/alien2_norm.png,0.473630358,TRUE,TRUE,3,0.109869205,red,m,0.6558,alien1,TRUE,2,0.45638516,17,1,0.659503493,x,0.6837,0,29,29,29,1,0.659503493,0.473630358,0.636367601,0.500905699,FALSE,,,,,,,,,,,,,,,,,,,,,,,,,,,,,,,,,
1206ny03,2023-12-06_14h08.47.717,two_step_task_legacy,2022.2.4,MacIntel,30.00120005,23,learning,0,resources/alien1_norm.png,0.633289649,resources/alien2_norm.png,0.501315139,TRUE,TRUE,3,0.248158972,red,m,0.5329,alien1,TRUE,3,0.723219746,17,0,0.633289649,x,0.6398,0,30,30,30,1,0.633289649,0.501315139,0.637914928,0.501224844,FALSE,,,,,,,,,,,,,,,,,,,,,,,,,,,,,,,,,
1206ny03,2023-12-06_14h08.47.717,two_step_task_legacy,2022.2.4,MacIntel,30.00120005,23,learning,0,resources/alien2_norm.png,0.486335384,resources/alien1_norm.png,0.601309191,TRUE,TRUE,3,0.337844469,red,m,0.3996,alien1,TRUE,2,0.059446193,18,1,0.601309191,m,0.7003,0,31,31,31,1,0.601309191,0.486335384,0.634843763,0.49511204,TRUE,,,,,,,,,,,,,,,,,,,,,,,,,,,,,,,,,
1206ny03,2023-12-06_14h08.47.717,two_step_task_legacy,2022.2.4,MacIntel,30.00120005,23,learning,0,resources/alien2_norm.png,0.467762774,resources/alien1_norm.png,0.601010443,TRUE,TRUE,3,0.122614101,red,m,0.5851,alien1,TRUE,3,0.949723469,18,0,0.601010443,m,0.5151,0,32,32,32,1,0.601010443,0.467762774,0.625739977,0.492316248,TRUE,,,,,,,,,,,,,,,,,,,,,,,,,,,,,,,,,
1206ny03,2023-12-06_14h08.47.717,two_step_task_legacy,2022.2.4,MacIntel,30.00120005,23,learning,1,resources/alien3_norm.png,0.615828505,resources/alien4_norm.png,0.545653013,TRUE,TRUE,2,0.970845709,purple,m,0.7334,alien3,TRUE,3,0.898813239,18,0,0.615828505,x,0.6288,0,33,33,33,1,0.622204761,0.465440023,0.615828505,0.545653013,FALSE,,,,,,,,,,,,,,,,,,,,,,,,,,,,,,,,,
1206ny03,2023-12-06_14h08.47.717,two_step_task_legacy,2022.2.4,MacIntel,30.00120005,23,learning,0,resources/alien2_norm.png,0.493981228,resources/alien1_norm.png,0.627316779,TRUE,TRUE,3,0.351516042,red,m,0.4691,alien1,TRUE,2,0.490645142,19,1,0.627316779,m,0.6148,0,34,34,34,1,0.627316779,0.493981228,0.59000377,0.495749277,TRUE,,,,,,,,,,,,,,,,,,,,,,,,,,,,,,,,,
1206ny03,2023-12-06_14h08.47.717,two_step_task_legacy,2022.2.4,MacIntel,30.00120005,23,learning,0,resources/alien2_norm.png,0.477218043,resources/alien1_norm.png,0.598288248,TRUE,TRUE,3,0.358417213,red,m,0.4047,alien1,TRUE,3,0.795850626,19,0,0.598288248,m,0.4149,0,35,35,35,1,0.598288248,0.477218043,0.553937559,0.524611694,TRUE,,,,,,,,,,,,,,,,,,,,,,,,,,,,,,,,,
1206ny03,2023-12-06_14h08.47.717,two_step_task_legacy,2022.2.4,MacIntel,30.00120005,23,learning,1,resources/alien3_norm.png,0.56908871,resources/alien4_norm.png,0.543066073,TRUE,TRUE,2,0.936307371,purple,m,0.4172,alien3,TRUE,3,0.779529797,19,0,0.56908871,x,0.6,0,36,36,36,1,0.614262045,0.493000476,0.56908871,0.543066073,FALSE,,,,,,,,,,,,,,,,,,,,,,,,,,,,,,,,,
1206ny03,2023-12-06_14h08.47.717,two_step_task_legacy,2022.2.4,MacIntel,30.00120005,23,learning,1,resources/alien4_norm.png,0.50431812,resources/alien3_norm.png,0.558161717,TRUE,TRUE,2,0.860283846,purple,m,0.4884,alien3,TRUE,2,0.344033511,20,1,0.558161717,m,0.6158,0,37,37,37,1,0.604854621,0.477881014,0.558161717,0.50431812,TRUE,,,,,,,,,,,,,,,,,,,,,,,,,,,,,,,,,
1206ny03,2023-12-06_14h08.47.717,two_step_task_legacy,2022.2.4,MacIntel,30.00120005,23,learning,0,resources/alien2_norm.png,0.534531278,resources/alien1_norm.png,0.588574075,TRUE,TRUE,3,0.105267241,red,m,0.5508,alien1,TRUE,2,0.573098399,21,1,0.588574075,m,0.5292,0,38,38,38,1,0.588574075,0.534531278,0.530772143,0.52797049,TRUE,,,,,,,,,,,,,,,,,,,,,,,,,,,,,,,,,
1206ny03,2023-12-06_14h08.47.717,two_step_task_legacy,2022.2.4,MacIntel,30.00120005,23,learning,0,resources/alien1_norm.png,0.595909038,resources/alien2_norm.png,0.531132777,TRUE,TRUE,3,0.089700177,red,m,0.5525,alien1,TRUE,3,0.76756838,21,0,0.595909038,x,0.6004,0,39,39,39,1,0.595909038,0.531132777,0.540735318,0.557222525,FALSE,,,,,,,,,,,,,,,,,,,,,,,,,,,,,,,,,
1206ny03,2023-12-06_14h08.47.717,two_step_task_legacy,2022.2.4,MacIntel,30.00120005,23,learning,0,resources/alien1_norm.png,0.574771467,resources/alien2_norm.png,0.540223528,TRUE,TRUE,3,0.668650326,red,m,0.4523,alien1,TRUE,2,0.227748553,22,1,0.574771467,x,0.6178,0,40,40,40,1,0.574771467,0.540223528,0.494666279,0.583638711,FALSE,,,,,,,,,,,,,,,,,,,,,,,,,,,,,,,,,
1206ny03,2023-12-06_14h08.47.717,two_step_task_legacy,2022.2.4,MacIntel,30.00120005,23,learning,0,resources/alien1_norm.png,0.584272001,resources/alien2_norm.png,0.559165838,TRUE,TRUE,3,0.068472207,red,m,0.4651,alien1,TRUE,2,0.368918593,23,1,0.584272001,x,0.5344,0,41,41,41,1,0.584272001,0.559165838,0.50627781,0.5945859,FALSE,,,,,,,,,,,,,,,,,,,,,,,,,,,,,,,,,
1206ny03,2023-12-06_14h08.47.717,two_step_task_legacy,2022.2.4,MacIntel,30.00120005,23,learning,0,resources/alien1_norm.png,0.630034319,resources/alien2_norm.png,0.617175123,TRUE,TRUE,3,0.024278317,red,m,0.6499,alien1,TRUE,2,0.551115255,24,1,0.630034319,x,0.5491,0,42,42,42,1,0.630034319,0.617175123,0.516590823,0.640132819,FALSE,,,,,,,,,,,,,,,,,,,,,,,,,,,,,,,,,
1206ny03,2023-12-06_14h08.47.717,two_step_task_legacy,2022.2.4,MacIntel,30.00120005,23,learning,0,resources/alien2_norm.png,0.616003092,resources/alien1_norm.png,0.619075687,TRUE,TRUE,3,0.130667647,red,m,0.6046,alien1,TRUE,2,0.541693825,25,1,0.619075687,m,0.6483,0,43,43,43,1,0.619075687,0.616003092,0.487932716,0.607580451,TRUE,,,,,,,,,,,,,,,,,,,,,,,,,,,,,,,,,
1206ny03,2023-12-06_14h08.47.717,two_step_task_legacy,2022.2.4,MacIntel,30.00120005,23,learning,1,resources/alien3_norm.png,0.519583753,resources/alien4_norm.png,0.572653625,TRUE,TRUE,2,0.787903355,purple,m,0.6198,alien3,TRUE,3,0.971103636,25,0,0.519583753,x,0.5968,0,44,44,44,1,0.605356515,0.582526972,0.519583753,0.572653625,FALSE,,,,,,,,,,,,,,,,,,,,,,,,,,,,,,,,,
1206ny03,2023-12-06_14h08.47.717,two_step_task_legacy,2022.2.4,MacIntel,30.00120005,23,learning,0,resources/alien1_norm.png,0.557081221,resources/alien2_norm.png,0.577200294,TRUE,TRUE,3,0.246868736,red,m,0.5173,alien1,TRUE,2,0.539152301,26,1,0.557081221,x,0.5806,0,45,45,45,1,0.557081221,0.577200294,0.511061951,0.574858948,FALSE,,,,,,,,,,,,,,,,,,,,,,,,,,,,,,,,,
1206ny03,2023-12-06_14h08.47.717,two_step_task_legacy,2022.2.4,MacIntel,30.00120005,23,learning,1,resources/alien3_norm.png,0.532871987,resources/alien4_norm.png,0.595061916,TRUE,TRUE,2,0.868569424,purple,m,0.4152,alien3,TRUE,3,0.645187967,26,0,0.532871987,x,0.612,0,46,46,46,1,0.555291304,0.598845262,0.532871987,0.595061916,FALSE,,,,,,,,,,,,,,,,,,,,,,,,,,,,,,,,,
1206ny03,2023-12-06_14h08.47.717,two_step_task_legacy,2022.2.4,MacIntel,30.00120005,23,learning,0,resources/alien1_norm.png,0.578601924,resources/alien2_norm.png,0.598532069,TRUE,TRUE,3,0.676237087,red,m,0.5025,alien1,TRUE,2,0.317014497,27,1,0.578601924,x,0.5438,0,47,47,47,1,0.578601924,0.598532069,0.529726075,0.585828111,FALSE,,,,,,,,,,,,,,,,,,,,,,,,,,,,,,,,,
1206ny03,2023-12-06_14h08.47.717,two_step_task_legacy,2022.2.4,MacIntel,30.00120005,23,learning,0,resources/alien1_norm.png,0.542249819,resources/alien2_norm.png,0.586538679,TRUE,TRUE,3,0.686705986,red,m,0.4999,alien1,TRUE,3,0.553191954,27,0,0.542249819,x,0.4702,0,48,48,48,1,0.542249819,0.586538679,0.558730333,0.573653694,FALSE,,,,,,,,,,,,,,,,,,,,,,,,,,,,,,,,,
1206ny03,2023-12-06_14h08.47.717,two_step_task_legacy,2022.2.4,MacIntel,30.00120005,23,learning,0,resources/alien1_norm.png,0.519538965,resources/alien2_norm.png,0.584343304,TRUE,TRUE,3,0.416333471,red,m,0.3342,alien1,TRUE,2,0.298539957,28,1,0.519538965,x,0.3162,0,49,49,49,1,0.519538965,0.584343304,0.622833908,0.600621292,FALSE,,,,,,,,,,,,,,,,,,,,,,,,,,,,,,,,,
1206ny03,2023-12-06_14h08.47.717,two_step_task_legacy,2022.2.4,MacIntel,30.00120005,23,learning,0,resources/alien1_norm.png,0.554572557,resources/alien2_norm.png,0.581709677,TRUE,TRUE,3,0.011903423,red,m,0.5837,alien1,TRUE,2,0.23863309,29,1,0.554572557,x,0.7575,0,50,50,50,1,0.554572557,0.581709677,0.620348506,0.607356483,FALSE,,,,,,,,,,,,,,,,,,,,,,,,,,,,,,,,,
1206ny03,2023-12-06_14h08.47.717,two_step_task_legacy,2022.2.4,MacIntel,30.00120005,23,learning,1,resources/alien3_norm.png,0.6031703,resources/alien4_norm.png,0.607009894,TRUE,TRUE,2,0.918601016,purple,m,0.4177,alien3,TRUE,2,0.339286268,30,1,0.6031703,x,0.5342,0,51,51,51,1,0.547889004,0.612718726,0.6031703,0.607009894,FALSE,,,,,,,,,,,,,,,,,,,,,,,,,,,,,,,,,
1206ny03,2023-12-06_14h08.47.717,two_step_task_legacy,2022.2.4,MacIntel,30.00120005,23,learning,1,resources/alien4_norm.png,0.588840226,resources/alien3_norm.png,0.557769273,TRUE,TRUE,2,0.748498918,purple,m,0.405,alien3,TRUE,2,0.551230358,31,1,0.557769273,m,0.7005,0,52,52,52,1,0.544060582,0.595407189,0.557769273,0.588840226,TRUE,,,,,,,,,,,,,,,,,,,,,,,,,,,,,,,,,
1206ny03,2023-12-06_14h08.47.717,two_step_task_legacy,2022.2.4,MacIntel,30.00120005,23,learning,0,resources/alien2_norm.png,0.593072845,resources/alien1_norm.png,0.545266218,TRUE,TRUE,3,0.376140275,red,m,0.4879,alien1,TRUE,3,0.818552165,31,0,0.545266218,m,0.8003,0,53,53,53,1,0.545266218,0.593072845,0.542082465,0.626166645,TRUE,,,,,,,,,,,,,,,,,,,,,,,,,,,,,,,,,
1206ny03,2023-12-06_14h08.47.717,two_step_task_legacy,2022.2.4,MacIntel,30.00120005,23,learning,0,resources/alien1_norm.png,0.533636761,resources/alien2_norm.png,0.617187035,TRUE,TRUE,3,0.160407734,red,m,0.7172,alien1,TRUE,2,0.510991273,32,1,0.533636761,x,0.626,0,54,54,54,1,0.533636761,0.617187035,0.542691053,0.641639284,FALSE,,,,,,,,,,,,,,,,,,,,,,,,,,,,,,,,,
1206ny03,2023-12-06_14h08.47.717,two_step_task_legacy,2022.2.4,MacIntel,30.00120005,23,learning,0,resources/alien1_norm.png,0.53071874,resources/alien2_norm.png,0.642883939,TRUE,TRUE,3,0.314632175,red,m,0.4004,alien1,TRUE,2,0.033329589,33,1,0.53071874,x,0.5003,0,55,55,55,1,0.53071874,0.642883939,0.540688793,0.613630346,FALSE,,,,,,,,,,,,,,,,,,,,,,,,,,,,,,,,,
1206ny03,2023-12-06_14h08.47.717,two_step_task_legacy,2022.2.4,MacIntel,30.00120005,23,learning,1,resources/alien4_norm.png,0.604506511,resources/alien3_norm.png,0.506133513,TRUE,TRUE,2,0.758595062,purple,m,0.581,alien3,TRUE,2,0.304590765,34,1,0.506133513,m,1.2437,0,56,56,56,1,0.508540082,0.642374716,0.506133513,0.604506511,TRUE,,,,,,,,,,,,,,,,,,,,,,,,,,,,,,,,,
1206ny03,2023-12-06_14h08.47.717,two_step_task_legacy,2022.2.4,MacIntel,30.00120005,23,learning,0,resources/alien2_norm.png,0.646260215,resources/alien1_norm.png,0.519337081,TRUE,TRUE,3,0.668239253,red,m,0.4624,alien2,TRUE,3,0.773098008,34,0,0.646260215,x,0.7479,0,57,57,57,1,0.519337081,0.646260215,0.531679577,0.600516429,TRUE,,,,,,,,,,,,,,,,,,,,,,,,,,,,,,,,,
1206ny03,2023-12-06_14h08.47.717,two_step_task_legacy,2022.2.4,MacIntel,30.00120005,23,learning,0,resources/alien1_norm.png,0.515119314,resources/alien2_norm.png,0.644987866,TRUE,TRUE,3,0.482484351,red,m,0.4187,alien1,TRUE,3,0.61886026,34,0,0.515119314,x,1.4975,0,58,58,58,1,0.515119314,0.644987866,0.525737079,0.596579648,FALSE,,,,,,,,,,,,,,,,,,,,,,,,,,,,,,,,,
1206ny03,2023-12-06_14h08.47.717,two_step_task_legacy,2022.2.4,MacIntel,30.00120005,23,learning,1,resources/alien4_norm.png,0.600256718,resources/alien3_norm.png,0.535111942,TRUE,TRUE,2,0.732736751,purple,m,0.5516,alien3,TRUE,2,0.294368795,35,1,0.535111942,m,0.9503,0,59,59,59,1,0.482207563,0.621644772,0.535111942,0.600256718,TRUE,,,,,,,,,,,,,,,,,,,,,,,,,,,,,,,,,
1206ny03,2023-12-06_14h08.47.717,two_step_task_legacy,2022.2.4,MacIntel,30.00120005,23,learning,0,resources/alien1_norm.png,0.450055305,resources/alien2_norm.png,0.66669687,TRUE,TRUE,3,0.065175995,red,m,0.5182,alien1,TRUE,2,0.230620668,36,1,0.450055305,x,0.66,0,60,60,60,1,0.450055305,0.66669687,0.514338736,0.607153047,FALSE,,,,,,,,,,,,,,,,,,,,,,,,,,,,,,,,,
1206ny03,2023-12-06_14h08.47.717,two_step_task_legacy,2022.2.4,MacIntel,30.00120005,23,learning,0,resources/alien1_norm.png,0.419368289,resources/alien2_norm.png,0.658101899,TRUE,TRUE,3,0.398875511,red,m,0.5048,alien1,TRUE,3,0.458134074,36,0,0.419368289,x,0.4854,0,61,61,61,1,0.419368289,0.658101899,0.471642866,0.583823796,FALSE,,,,,,,,,,,,,,,,,,,,,,,,,,,,,,,,,
1206ny03,2023-12-06_14h08.47.717,two_step_task_legacy,2022.2.4,MacIntel,30.00120005,23,learning,0,resources/alien2_norm.png,0.679582459,resources/alien1_norm.png,0.476081837,TRUE,TRUE,3,0.232315917,red,m,0.45,alien1,TRUE,2,0.170438218,37,1,0.476081837,m,0.8154,0,62,62,62,1,0.476081837,0.679582459,0.495383864,0.577391808,TRUE,,,,,,,,,,,,,,,,,,,,,,,,,,,,,,,,,
1206ny03,2023-12-06_14h08.47.717,two_step_task_legacy,2022.2.4,MacIntel,30.00120005,23,learning,1,resources/alien4_norm.png,0.584382346,resources/alien3_norm.png,0.492482455,TRUE,TRUE,2,0.770696263,purple,m,0.5183,alien3,TRUE,2,0.389644073,38,1,0.492482455,m,0.6582,0,63,63,63,1,0.46564135,0.656019472,0.492482455,0.584382346,TRUE,,,,,,,,,,,,,,,,,,,,,,,,,,,,,,,,,
1206ny03,2023-12-06_14h08.47.717,two_step_task_legacy,2022.2.4,MacIntel,30.00120005,23,learning,0,resources/alien1_norm.png,0.477315304,resources/alien2_norm.png,0.650679566,TRUE,TRUE,3,0.661276045,red,m,0.4154,alien1,TRUE,2,0.035586091,39,1,0.477315304,x,0.6094,0,64,64,64,1,0.477315304,0.650679566,0.473090091,0.579903099,FALSE,,,,,,,,,,,,,,,,,,,,,,,,,,,,,,,,,
1206ny03,2023-12-06_14h08.47.717,two_step_task_legacy,2022.2.4,MacIntel,30.00120005,23,learning,0,resources/alien1_norm.png,0.46552265,resources/alien2_norm.png,0.62334515,TRUE,TRUE,3,0.063369476,red,m,0.553,alien1,TRUE,3,0.833578562,39,0,0.46552265,x,0.5848,0,65,65,65,1,0.46552265,0.62334515,0.46600528,0.57197952,FALSE,,,,,,,,,,,,,,,,,,,,,,,,,,,,,,,,,
1206ny03,2023-12-06_14h08.47.717,two_step_task_legacy,2022.2.4,MacIntel,30.00120005,23,learning,1,resources/alien4_norm.png,0.610089415,resources/alien3_norm.png,0.423812817,TRUE,TRUE,2,0.894841328,purple,m,0.4407,alien3,TRUE,2,0.1470188,40,1,0.423812817,m,0.6262,0,66,66,66,1,0.475612123,0.625851031,0.423812817,0.610089415,TRUE,,,,,,,,,,,,,,,,,,,,,,,,,,,,,,,,,
1206ny03,2023-12-06_14h08.47.717,two_step_task_legacy,2022.2.4,MacIntel,30.00120005,23,learning,0,resources/alien1_norm.png,0.488225722,resources/alien2_norm.png,0.591916813,TRUE,TRUE,3,0.432874522,red,m,0.4989,alien1,TRUE,2,0.107461133,41,1,0.488225722,x,0.5573,0,67,67,67,1,0.488225722,0.591916813,0.389156213,0.604504253,FALSE,,,,,,,,,,,,,,,,,,,,,,,,,,,,,,,,,
1206ny03,2023-12-06_14h08.47.717,two_step_task_legacy,2022.2.4,MacIntel,30.00120005,23,learning,0,resources/alien2_norm.png,0.566650103,resources/alien1_norm.png,0.447473516,TRUE,TRUE,3,0.125781457,red,m,0.467,alien1,TRUE,2,0.017845541,42,1,0.447473516,m,0.6335,0,68,68,68,1,0.447473516,0.566650103,0.426911286,0.600400303,TRUE,,,,,,,,,,,,,,,,,,,,,,,,,,,,,,,,,
1206ny03,2023-12-06_14h08.47.717,two_step_task_legacy,2022.2.4,MacIntel,30.00120005,23,learning,0,resources/alien2_norm.png,0.601017704,resources/alien1_norm.png,0.446833039,TRUE,TRUE,3,0.691479633,red,m,0.4988,alien1,TRUE,3,0.887934964,42,0,0.446833039,m,0.6203,0,69,69,69,1,0.446833039,0.601017704,0.419171163,0.645762646,TRUE,,,,,,,,,,,,,,,,,,,,,,,,,,,,,,,,,
1206ny03,2023-12-06_14h08.47.717,two_step_task_legacy,2022.2.4,MacIntel,30.00120005,23,learning,0,resources/alien2_norm.png,0.577212844,resources/alien1_norm.png,0.46229688,TRUE,TRUE,3,0.491486095,red,m,0.4408,alien1,TRUE,2,0.276838761,43,1,0.46229688,m,0.5008,0,70,70,70,1,0.46229688,0.577212844,0.381881382,0.679798258,TRUE,,,,,,,,,,,,,,,,,,,,,,,,,,,,,,,,,
1206ny03,2023-12-06_14h08.47.717,two_step_task_legacy,2022.2.4,MacIntel,30.00120005,23,learning,0,resources/alien2_norm.png,0.585168326,resources/alien1_norm.png,0.447857256,TRUE,TRUE,3,0.097232716,red,m,0.4204,alien1,TRUE,2,0.347283486,44,1,0.447857256,m,0.5067,0,71,71,71,1,0.447857256,0.585168326,0.372866063,0.744246282,TRUE,,,,,,,,,,,,,,,,,,,,,,,,,,,,,,,,,
1206ny03,2023-12-06_14h08.47.717,two_step_task_legacy,2022.2.4,MacIntel,30.00120005,23,learning,0,resources/alien2_norm.png,0.590253845,resources/alien1_norm.png,0.469156344,TRUE,TRUE,3,0.576221565,red,m,0.4569,alien1,TRUE,3,0.760169511,44,0,0.469156344,m,0.4319,0,72,72,72,1,0.469156344,0.590253845,0.365658811,0.738925901,TRUE,,,,,,,,,,,,,,,,,,,,,,,,,,,,,,,,,
1206ny03,2023-12-06_14h08.47.717,two_step_task_legacy,2022.2.4,MacIntel,30.00120005,23,learning,0,resources/alien1_norm.png,0.524386296,resources/alien2_norm.png,0.606410566,TRUE,TRUE,3,0.643438334,red,m,0.3319,alien1,TRUE,3,0.552790632,44,0,0.524386296,x,0.6484,0,73,73,73,1,0.524386296,0.606410566,0.368495441,0.745967699,FALSE,,,,,,,,,,,,,,,,,,,,,,,,,,,,,,,,,
1206ny03,2023-12-06_14h08.47.717,two_step_task_legacy,2022.2.4,MacIntel,30.00120005,23,learning,0,resources/alien1_norm.png,0.546195851,resources/alien2_norm.png,0.610187899,TRUE,TRUE,3,0.239410648,red,m,0.4497,alien1,TRUE,2,0.405911307,45,1,0.546195851,x,0.5321,0,74,74,74,1,0.546195851,0.610187899,0.382592524,0.747056302,FALSE,,,,,,,,,,,,,,,,,,,,,,,,,,,,,,,,,
1206ny03,2023-12-06_14h08.47.717,two_step_task_legacy,2022.2.4,MacIntel,30.00120005,23,learning,0,resources/alien2_norm.png,0.630410906,resources/alien1_norm.png,0.516674318,TRUE,TRUE,3,0.478434578,red,m,0.6721,alien1,TRUE,3,0.773304086,45,0,0.516674318,m,0.5808,0,75,75,75,1,0.516674318,0.630410906,0.365808589,0.727966599,TRUE,,,,,,,,,,,,,,,,,,,,,,,,,,,,,,,,,
1206ny03,2023-12-06_14h08.47.717,two_step_task_legacy,2022.2.4,MacIntel,30.00120005,23,learning,0,resources/alien2_norm.png,0.600336462,resources/alien1_norm.png,0.513333865,TRUE,TRUE,3,0.493784041,red,m,0.4849,alien1,TRUE,3,0.735716585,45,0,0.513333865,m,0.4925,0,76,76,76,1,0.513333865,0.600336462,0.376049182,0.747496672,TRUE,,,,,,,,,,,,,,,,,,,,,,,,,,,,,,,,,
1206ny03,2023-12-06_14h08.47.717,two_step_task_legacy,2022.2.4,MacIntel,30.00120005,23,learning,1,resources/alien3_norm.png,0.366792972,resources/alien4_norm.png,0.743468027,TRUE,TRUE,2,0.950922035,purple,m,0.3823,alien3,TRUE,3,0.55218801,45,0,0.366792972,x,1.0284,0,77,77,77,1,0.533414093,0.616695744,0.366792972,0.743468027,FALSE,,,,,,,,,,,,,,,,,,,,,,,,,,,,,,,,,
1206ny03,2023-12-06_14h08.47.717,two_step_task_legacy,2022.2.4,MacIntel,30.00120005,23,learning,1,resources/alien4_norm.png,0.729281693,resources/alien3_norm.png,0.342893528,TRUE,TRUE,2,0.8692251,purple,m,0.4794,alien3,TRUE,3,0.481481213,45,0,0.342893528,m,0.773,0,78,78,78,1,0.522426186,0.626472856,0.342893528,0.729281693,TRUE,,,,,,,,,,,,,,,,,,,,,,,,,,,,,,,,,
1206ny03,2023-12-06_14h08.47.717,two_step_task_legacy,2022.2.4,MacIntel,30.00120005,23,learning,0,resources/alien1_norm.png,0.537512346,resources/alien2_norm.png,0.612363775,TRUE,TRUE,3,0.211816618,red,m,0.4487,alien1,TRUE,2,0.407675999,46,1,0.537512346,x,0.5697,0,79,79,79,1,0.537512346,0.612363775,0.328275201,0.732241262,FALSE,,,,,,,,,,,,,,,,,,,,,,,,,,,,,,,,,
1206ny03,2023-12-06_14h08.47.717,two_step_task_legacy,2022.2.4,MacIntel,30.00120005,23,learning,0,resources/alien2_norm.png,0.646040762,resources/alien1_norm.png,0.564643748,TRUE,TRUE,3,0.13929659,red,m,0.5529,alien1,TRUE,2,0.004181658,47,1,0.564643748,m,0.6138,0,80,80,80,1,0.564643748,0.646040762,0.339910551,0.703847115,TRUE,,,,,,,,,,,,,,,,,,,,,,,,,,,,,,,,,
1206ny03,2023-12-06_14h08.47.717,two_step_task_legacy,2022.2.4,MacIntel,30.00120005,23,learning,0,resources/alien1_norm.png,0.574339547,resources/alien2_norm.png,0.667820554,TRUE,TRUE,3,0.667236034,red,m,0.9186,alien1,TRUE,3,0.907504471,47,0,0.574339547,x,0.5054,0,81,81,81,1,0.574339547,0.667820554,0.355880374,0.713459204,FALSE,,,,,,,,,,,,,,,,,,,,,,,,,,,,,,,,,
1206ny03,2023-12-06_14h08.47.717,two_step_task_legacy,2022.2.4,MacIntel,30.00120005,23,learning,0,resources/alien1_norm.png,0.55697673,resources/alien2_norm.png,0.698602971,TRUE,TRUE,3,0.294724469,red,m,0.4343,alien1,TRUE,3,0.901198896,47,0,0.55697673,x,0.5672,0,82,82,82,1,0.55697673,0.698602971,0.383992384,0.723108132,FALSE,,,,,,,,,,,,,,,,,,,,,,,,,,,,,,,,,
1206ny03,2023-12-06_14h08.47.717,two_step_task_legacy,2022.2.4,MacIntel,30.00120005,23,learning,1,resources/alien4_norm.png,0.74849031,resources/alien3_norm.png,0.388691416,TRUE,TRUE,2,0.882965244,purple,m,0.4351,alien3,TRUE,3,0.865041238,47,0,0.388691416,m,0.7458,0,83,83,83,1,0.520995768,0.688535499,0.388691416,0.74849031,TRUE,,,,,,,,,,,,,,,,,,,,,,,,,,,,,,,,,
1206ny03,2023-12-06_14h08.47.717,two_step_task_legacy,2022.2.4,MacIntel,30.00120005,23,learning,0,resources/alien1_norm.png,0.560357955,resources/alien2_norm.png,0.710364652,TRUE,TRUE,3,0.400102299,red,m,0.4346,alien1,TRUE,2,0.332777611,48,1,0.560357955,x,0.668,0,84,84,84,1,0.560357955,0.710364652,0.394471814,0.708470458,FALSE,,,,,,,,,,,,,,,,,,,,,,,,,,,,,,,,,
1206ny03,2023-12-06_14h08.47.717,two_step_task_legacy,2022.2.4,MacIntel,30.00120005,23,learning,1,resources/alien4_norm.png,0.701290951,resources/alien3_norm.png,0.366165455,TRUE,TRUE,2,0.8228824,purple,m,0.4873,alien3,TRUE,2,0.035984821,49,1,0.366165455,m,0.8321,0,85,85,85,1,0.642492048,0.694563603,0.366165455,0.701290951,TRUE,,,,,,,,,,,,,,,,,,,,,,,,,,,,,,,,,
1206ny03,2023-12-06_14h08.47.717,two_step_task_legacy,2022.2.4,MacIntel,30.00120005,23,learning,0,resources/alien2_norm.png,0.693119638,resources/alien1_norm.png,0.659827268,TRUE,TRUE,3,0.05626748,red,m,0.5672,alien1,TRUE,2,0.659133874,50,1,0.659827268,m,0.6618,0,86,86,86,1,0.659827268,0.693119638,0.339851899,0.68653895,TRUE,,,,,,,,,,,,,,,,,,,,,,,,,,,,,,,,,
1206ny03,2023-12-06_14h08.47.717,two_step_task_legacy,2022.2.4,MacIntel,30.00120005,23,learning,0,resources/alien1_norm.png,0.662335746,resources/alien2_norm.png,0.693358738,TRUE,TRUE,3,0.520987408,red,m,0.4709,alien1,TRUE,3,0.992712716,50,0,0.662335746,x,0.6314,0,87,87,87,1,0.662335746,0.693358738,0.344034175,0.714890726,FALSE,,,,,,,,,,,,,,,,,,,,,,,,,,,,,,,,,
1206ny03,2023-12-06_14h08.47.717,two_step_task_legacy,2022.2.4,MacIntel,30.00120005,23,learning,0,resources/alien1_norm.png,0.654953403,resources/alien2_norm.png,0.711283868,TRUE,TRUE,3,0.060951764,red,m,0.4369,alien1,TRUE,3,0.972277765,50,0,0.654953403,x,0.6334,0,88,88,88,1,0.654953403,0.711283868,0.317764846,0.686498284,FALSE,,,,,,,,,,,,,,,,,,,,,,,,,,,,,,,,,
1206ny03,2023-12-06_14h08.47.717,two_step_task_legacy,2022.2.4,MacIntel,30.00120005,23,learning,0,resources/alien1_norm.png,0.616516022,resources/alien2_norm.png,0.696475853,TRUE,TRUE,3,0.606184056,red,m,0.4181,alien1,TRUE,3,0.992621734,50,0,0.616516022,x,0.5833,0,89,89,89,1,0.616516022,0.696475853,0.351001491,0.679595828,FALSE,,,,,,,,,,,,,,,,,,,,,,,,,,,,,,,,,
1206ny03,2023-12-06_14h08.47.717,two_step_task_legacy,2022.2.4,MacIntel,30.00120005,23,learning,1,resources/alien4_norm.png,0.65457047,resources/alien3_norm.png,0.333950803,TRUE,TRUE,2,0.902790965,purple,m,0.2497,alien3,TRUE,2,0.273590132,51,1,0.333950803,m,0.5287,0,90,90,90,1,0.617393134,0.712975203,0.333950803,0.65457047,TRUE,,,,,,,,,,,,,,,,,,,,,,,,,,,,,,,,,
1206ny03,2023-12-06_14h08.47.717,two_step_task_legacy,2022.2.4,MacIntel,30.00120005,23,learning,0,resources/alien1_norm.png,0.605248488,resources/alien2_norm.png,0.727979256,TRUE,TRUE,3,0.058071695,red,m,0.535,alien1,TRUE,2,0.00864545,52,1,0.605248488,x,0.5267,0,91,91,91,1,0.605248488,0.727979256,0.333164568,0.68681226,FALSE,,,,,,,,,,,,,,,,,,,,,,,,,,,,,,,,,
1206ny03,2023-12-06_14h08.47.717,two_step_task_legacy,2022.2.4,MacIntel,30.00120005,23,learning,1,resources/alien4_norm.png,0.695375305,resources/alien3_norm.png,0.335050717,TRUE,TRUE,2,0.895027746,purple,m,0.4491,alien3,TRUE,2,0.238951427,53,1,0.335050717,m,0.5126,0,92,92,92,1,0.597920866,0.710049944,0.335050717,0.695375305,TRUE,,,,,,,,,,,,,,,,,,,,,,,,,,,,,,,,,
1206ny03,2023-12-06_14h08.47.717,two_step_task_legacy,2022.2.4,MacIntel,30.00120005,23,learning,0,resources/alien2_norm.png,0.695892733,resources/alien1_norm.png,0.570087701,TRUE,TRUE,3,0.404918641,red,m,0.3654,alien1,TRUE,2,0.127078828,54,1,0.570087701,m,0.5254,0,93,93,93,1,0.570087701,0.695892733,0.361676132,0.705704451,TRUE,,,,,,,,,,,,,,,,,,,,,,,,,,,,,,,,,
1206ny03,2023-12-06_14h08.47.717,two_step_task_legacy,2022.2.4,MacIntel,30.00120005,23,learning,1,resources/alien3_norm.png,0.335318237,resources/alien4_norm.png,0.711789496,TRUE,TRUE,2,0.871106576,purple,m,0.4361,alien3,TRUE,2,0.308173262,55,1,0.335318237,x,0.6478,0,94,94,94,1,0.529720036,0.708120691,0.335318237,0.711789496,FALSE,,,,,,,,,,,,,,,,,,,,,,,,,,,,,,,,,
1206ny03,2023-12-06_14h08.47.717,two_step_task_legacy,2022.2.4,MacIntel,30.00120005,23,learning,0,resources/alien2_norm.png,0.721500672,resources/alien1_norm.png,0.47635657,TRUE,TRUE,3,0.561487093,red,m,0.3833,alien1,TRUE,3,0.9066228,55,0,0.47635657,m,0.5131,0,95,95,95,1,0.47635657,0.721500672,0.398221116,0.682412233,TRUE,,,,,,,,,,,,,,,,,,,,,,,,,,,,,,,,,
1206ny03,2023-12-06_14h08.47.717,two_step_task_legacy,2022.2.4,MacIntel,30.00120005,23,learning,1,resources/alien3_norm.png,0.401364405,resources/alien4_norm.png,0.649304922,TRUE,TRUE,2,0.803241239,purple,m,0.2818,alien3,TRUE,3,0.906614161,55,0,0.401364405,x,0.6182,0,96,96,96,1,0.466179965,0.715414355,0.401364405,0.649304922,FALSE,,,,,,,,,,,,,,,,,,,,,,,,,,,,,,,,,
1206ny03,2023-12-06_14h08.47.717,two_step_task_legacy,2022.2.4,MacIntel,30.00120005,23,learning,0,resources/alien1_norm.png,0.467126539,resources/alien2_norm.png,0.723595882,TRUE,TRUE,3,0.208966025,red,m,0.3188,alien1,TRUE,3,0.666038807,55,0,0.467126539,x,0.5785,0,97,97,97,1,0.467126539,0.723595882,0.396988401,0.645948713,FALSE,,,,,,,,,,,,,,,,,,,,,,,,,,,,,,,,,
1206ny03,2023-12-06_14h08.47.717,two_step_task_legacy,2022.2.4,MacIntel,30.00120005,23,learning,0,resources/alien3_norm.png,0.433219326,resources/alien4_norm.png,0.668586832,TRUE,TRUE,2,0.53247441,purple,x,0.9507,alien3,TRUE,2,0.127606155,56,1,0.433219326,x,0.3919,0,98,98,98,1,0.439790307,0.696269276,0.433219326,0.668586832,FALSE,,,,,,,,,,,,,,,,,,,,,,,,,,,,,,,,,
1206ny03,2023-12-06_14h08.47.717,two_step_task_legacy,2022.2.4,MacIntel,30.00120005,23,learning,1,resources/alien2_norm.png,0.659724849,resources/alien1_norm.png,0.464800643,TRUE,TRUE,3,0.752856661,red,x,0.314,alien1,TRUE,3,0.909811024,56,0,0.464800643,m,0.5613,0,99,99,99,1,0.464800643,0.659724849,0.442086132,0.680060197,TRUE,,,,,,,,,,,,,,,,,,,,,,,,,,,,,,,,,
1206ny03,2023-12-06_14h08.47.717,two_step_task_legacy,2022.2.4,MacIntel,30.00120005,23,learning,0,resources/alien4_norm.png,0.688821162,resources/alien3_norm.png,0.432642845,TRUE,TRUE,2,0.206541075,purple,x,0.4012,alien3,TRUE,2,0.119904847,57,1,0.432642845,m,0.7604,0,100,100,100,1,0.453655036,0.648409952,0.432642845,0.688821162,TRUE,,,,,,,,,,,,,,,,,,,,,,,,,,,,,,,,,
1206ny03,2023-12-06_14h08.47.717,two_step_task_legacy,2022.2.4,MacIntel,30.00120005,23,learning,0,resources/alien3_norm.png,0.452743872,resources/alien4_norm.png,0.655063209,TRUE,TRUE,2,0.207959667,purple,x,0.4501,alien3,TRUE,2,0.146825559,58,1,0.452743872,x,0.4807,0,101,101,101,1,0.480154937,0.66099901,0.452743872,0.655063209,FALSE,,,,,,,,,,,,,,,,,,,,,,,,,,,,,,,,,
1206ny03,2023-12-06_14h08.47.717,two_step_task_legacy,2022.2.4,MacIntel,30.00120005,23,learning,0,resources/alien3_norm.png,0.456887081,resources/alien4_norm.png,0.675596743,TRUE,TRUE,2,0.339861188,purple,x,0.2988,alien3,TRUE,2,0.195567757,59,1,0.456887081,x,0.5844,0,102,102,102,1,0.435064291,0.686802619,0.456887081,0.675596743,FALSE,,,,,,,,,,,,,,,,,,,,,,,,,,,,,,,,,
1206ny03,2023-12-06_14h08.47.717,two_step_task_legacy,2022.2.4,MacIntel,30.00120005,23,learning,0,resources/alien4_norm.png,0.728894923,resources/alien3_norm.png,0.437649181,TRUE,TRUE,2,0.092449838,purple,x,0.2827,alien4,TRUE,3,0.8139044,59,0,0.728894923,x,0.4328,0,103,103,103,1,0.4274682,0.689975019,0.437649181,0.728894923,TRUE,,,,,,,,,,,,,,,,,,,,,,,,,,,,,,,,,
1206ny03,2023-12-06_14h08.47.717,two_step_task_legacy,2022.2.4,MacIntel,30.00120005,23,learning,0,resources/alien3_norm.png,0.448066099,resources/alien4_norm.png,0.744590341,TRUE,TRUE,2,0.601850315,purple,x,0.2656,alien3,TRUE,2,0.002775704,60,1,0.448066099,x,0.5533,0,104,104,104,1,0.394205489,0.723807258,0.448066099,0.744590341,FALSE,,,,,,,,,,,,,,,,,,,,,,,,,,,,,,,,,
1206ny03,2023-12-06_14h08.47.717,two_step_task_legacy,2022.2.4,MacIntel,30.00120005,23,learning,0,resources/alien4_norm.png,0.723819794,resources/alien3_norm.png,0.485443502,TRUE,TRUE,2,0.280574782,purple,x,0.7651,alien3,TRUE,2,0.256454352,61,1,0.485443502,m,0.4553,0,105,105,105,1,0.37371153,0.742093466,0.485443502,0.723819794,TRUE,,,,,,,,,,,,,,,,,,,,,,,,,,,,,,,,,
1206ny03,2023-12-06_14h08.47.717,two_step_task_legacy,2022.2.4,MacIntel,30.00120005,23,learning,0,resources/alien4_norm.png,0.67031434,resources/alien3_norm.png,0.478530119,TRUE,TRUE,2,0.249926952,purple,x,0.2863,alien3,TRUE,2,0.448333269,62,1,0.478530119,m,0.5851,0,106,106,106,1,0.349275118,0.734634343,0.478530119,0.67031434,TRUE,,,,,,,,,,,,,,,,,,,,,,,,,,,,,,,,,
1206ny03,2023-12-06_14h08.47.717,two_step_task_legacy,2022.2.4,MacIntel,30.00120005,23,learning,0,resources/alien4_norm.png,0.709673268,resources/alien3_norm.png,0.495373807,TRUE,TRUE,2,0.318063153,purple,x,0.2847,alien3,TRUE,2,0.333727177,63,1,0.495373807,m,0.5204,0,107,107,107,1,0.35021253,0.718841441,0.495373807,0.709673268,TRUE,,,,,,,,,,,,,,,,,,,,,,,,,,,,,,,,,
1206ny03,2023-12-06_14h08.47.717,two_step_task_legacy,2022.2.4,MacIntel,30.00120005,23,learning,1,resources/alien2_norm.png,0.676963284,resources/alien1_norm.png,0.337348022,TRUE,TRUE,3,0.944000359,red,x,0.3001,alien2,TRUE,2,0.018219665,64,1,0.676963284,x,1.3291,0,108,108,108,1,0.337348022,0.676963284,0.450735795,0.731898862,TRUE,,,,,,,,,,,,,,,,,,,,,,,,,,,,,,,,,
1206ny03,2023-12-06_14h08.47.717,two_step_task_legacy,2022.2.4,MacIntel,30.00120005,23,learning,0,resources/alien4_norm.png,0.74430369,resources/alien3_norm.png,0.480315234,TRUE,TRUE,2,0.619994571,purple,x,0.3986,alien3,TRUE,2,0.008111667,65,1,0.480315234,m,0.5609,0,109,109,109,1,0.322911322,0.662157072,0.480315234,0.74430369,TRUE,,,,,,,,,,,,,,,,,,,,,,,,,,,,,,,,,
1206ny03,2023-12-06_14h08.47.717,two_step_task_legacy,2022.2.4,MacIntel,30.00120005,23,learning,1,resources/alien2_norm.png,0.729054729,resources/alien1_norm.png,0.323042006,TRUE,TRUE,3,0.937714627,red,x,0.2537,alien2,TRUE,2,0.583005834,66,1,0.729054729,x,0.6445,0,110,110,110,1,0.323042006,0.729054729,0.477745384,0.7400153,TRUE,,,,,,,,,,,,,,,,,,,,,,,,,,,,,,,,,
1206ny03,2023-12-06_14h08.47.717,two_step_task_legacy,2022.2.4,MacIntel,30.00120005,23,learning,0,resources/alien3_norm.png,0.502964312,resources/alien4_norm.png,0.740528536,TRUE,TRUE,2,0.203440823,purple,x,0.2819,alien3,TRUE,2,0.427642202,67,1,0.502964312,x,0.5167,0,111,111,111,1,0.346977723,0.717049686,0.502964312,0.740528536,FALSE,,,,,,,,,,,,,,,,,,,,,,,,,,,,,,,,,
1206ny03,2023-12-06_14h08.47.717,two_step_task_legacy,2022.2.4,MacIntel,30.00120005,23,learning,0,resources/alien4_norm.png,0.746181252,resources/alien3_norm.png,0.560076847,TRUE,TRUE,2,0.60009715,purple,x,0.2698,alien3,TRUE,3,0.581836745,67,0,0.560076847,m,0.6418,0,112,112,112,1,0.332641057,0.710505866,0.560076847,0.746181252,TRUE,,,,,,,,,,,,,,,,,,,,,,,,,,,,,,,,,
1206ny03,2023-12-06_14h08.47.717,two_step_task_legacy,2022.2.4,MacIntel,30.00120005,23,learning,1,resources/alien1_norm.png,0.329582244,resources/alien2_norm.png,0.713556046,TRUE,TRUE,3,0.938442825,red,x,0.3215,alien2,TRUE,2,0.136193904,68,1,0.713556046,m,0.5123,0,113,113,113,1,0.329582244,0.713556046,0.551953466,0.737084193,FALSE,,,,,,,,,,,,,,,,,,,,,,,,,,,,,,,,,
1206ny03,2023-12-06_14h08.47.717,two_step_task_legacy,2022.2.4,MacIntel,30.00120005,23,learning,0,resources/alien3_norm.png,0.54581186,resources/alien4_norm.png,0.722210778,TRUE,TRUE,2,0.351891701,purple,x,0.4169,alien3,TRUE,2,0.176566402,69,1,0.54581186,x,0.6932,0,114,114,114,1,0.300863762,0.698255739,0.54581186,0.722210778,FALSE,,,,,,,,,,,,,,,,,,,,,,,,,,,,,,,,,
1206ny03,2023-12-06_14h08.47.717,two_step_task_legacy,2022.2.4,MacIntel,30.00120005,23,learning,0,resources/alien4_norm.png,0.744852234,resources/alien3_norm.png,0.527422928,TRUE,TRUE,2,0.276692533,purple,x,0.3859,alien3,TRUE,2,0.060962485,70,1,0.527422928,m,0.7374,0,115,115,115,1,0.335585272,0.683609207,0.527422928,0.744852234,TRUE,,,,,,,,,,,,,,,,,,,,,,,,,,,,,,,,,
1206ny03,2023-12-06_14h08.47.717,two_step_task_legacy,2022.2.4,MacIntel,30.00120005,23,learning,0,resources/alien4_norm.png,0.710357088,resources/alien3_norm.png,0.529277885,TRUE,TRUE,2,0.657109246,purple,x,0.6216,alien3,TRUE,2,0.02339168,71,1,0.529277885,m,0.7381,0,116,116,116,1,0.358671417,0.690248802,0.529277885,0.710357088,TRUE,,,,,,,,,,,,,,,,,,,,,,,,,,,,,,,,,
1206ny03,2023-12-06_14h08.47.717,two_step_task_legacy,2022.2.4,MacIntel,30.00120005,23,learning,1,resources/alien1_norm.png,0.395365799,resources/alien2_norm.png,0.718538292,TRUE,TRUE,3,0.987632432,red,x,0.3996,alien2,TRUE,3,0.899094,71,0,0.718538292,m,0.8931,0,117,117,117,1,0.395365799,0.718538292,0.547665382,0.724019431,FALSE,,,,,,,,,,,,,,,,,,,,,,,,,,,,,,,,,
1206ny03,2023-12-06_14h08.47.717,two_step_task_legacy,2022.2.4,MacIntel,30.00120005,23,learning,0,resources/alien4_norm.png,0.74235091,resources/alien3_norm.png,0.542102089,TRUE,TRUE,2,0.112777951,purple,x,0.5331,alien3,TRUE,3,0.651287479,71,0,0.542102089,m,0.6609,0,118,118,118,1,0.384016558,0.721594268,0.542102089,0.74235091,TRUE,,,,,,,,,,,,,,,,,,,,,,,,,,,,,,,,,
1206ny03,2023-12-06_14h08.47.717,two_step_task_legacy,2022.2.4,MacIntel,30.00120005,23,learning,1,resources/alien2_norm.png,0.706850908,resources/alien1_norm.png,0.379194304,TRUE,TRUE,3,0.880598111,red,x,0.4518,alien2,TRUE,2,0.311438088,72,1,0.706850908,x,0.7282,0,119,119,119,1,0.379194304,0.706850908,0.527099802,0.742572012,TRUE,,,,,,,,,,,,,,,,,,,,,,,,,,,,,,,,,
1206ny03,2023-12-06_14h08.47.717,two_step_task_legacy,2022.2.4,MacIntel,30.00120005,23,learning,0,resources/alien3_norm.png,0.497453415,resources/alien4_norm.png,0.747849489,TRUE,TRUE,2,0.26473569,purple,x,0.467,alien3,TRUE,3,0.859090071,72,0,0.497453415,x,0.5127,0,120,120,120,1,0.311589413,0.742746316,0.497453415,0.747849489,FALSE,,,,,,,,,,,,,,,,,,,,,,,,,,,,,,,,,
1206ny03,2023-12-06_14h08.47.717,two_step_task_legacy,2022.2.4,MacIntel,30.00120005,23,learning,0,resources/alien3_norm.png,0.493636211,resources/alien4_norm.png,0.732948846,TRUE,TRUE,2,0.358619066,purple,x,0.2395,alien3,TRUE,3,0.968245801,72,0,0.493636211,x,0.6336,0,121,121,121,1,0.288613638,0.734331013,0.493636211,0.732948846,FALSE,,,,,,,,,,,,,,,,,,,,,,,,,,,,,,,,,
1206ny03,2023-12-06_14h08.47.717,two_step_task_legacy,2022.2.4,MacIntel,30.00120005,23,learning,0,resources/alien4_norm.png,0.712748711,resources/alien3_norm.png,0.458718952,TRUE,TRUE,2,0.443123921,purple,x,0.2544,alien4,TRUE,2,0.309397195,73,1,0.712748711,x,0.5996,0,122,122,122,1,0.327163232,0.735030185,0.458718952,0.712748711,TRUE,,,,,,,,,,,,,,,,,,,,,,,,,,,,,,,,,
1206ny03,2023-12-06_14h08.47.717,two_step_task_legacy,2022.2.4,MacIntel,30.00120005,23,learning,0,resources/alien3_norm.png,0.414123906,resources/alien4_norm.png,0.707920788,TRUE,TRUE,2,0.484161171,purple,x,0.2678,alien4,TRUE,3,0.754843946,73,0,0.707920788,m,0.457,0,123,123,123,1,0.325553926,0.735188606,0.414123906,0.707920788,FALSE,,,,,,,,,,,,,,,,,,,,,,,,,,,,,,,,,
1206ny03,2023-12-06_14h08.47.717,two_step_task_legacy,2022.2.4,MacIntel,30.00120005,23,learning,1,resources/alien1_norm.png,0.332284924,resources/alien2_norm.png,0.728011457,TRUE,TRUE,3,0.776471553,red,x,0.289,alien2,TRUE,3,0.842815258,73,0,0.728011457,m,0.6756,0,124,124,124,1,0.332284924,0.728011457,0.358787311,0.719523144,FALSE,,,,,,,,,,,,,,,,,,,,,,,,,,,,,,,,,
1206ny03,2023-12-06_14h08.47.717,two_step_task_legacy,2022.2.4,MacIntel,30.00120005,23,learning,0,resources/alien1_norm.png,0.326093405,resources/alien2_norm.png,0.695840729,TRUE,TRUE,3,0.064736367,red,m,0.4333,alien2,TRUE,2,0.386687714,74,1,0.695840729,m,0.5329,0,125,125,125,1,0.326093405,0.695840729,0.400002364,0.736399527,FALSE,,,,,,,,,,,,,,,,,,,,,,,,,,,,,,,,,
1206ny03,2023-12-06_14h08.47.717,two_step_task_legacy,2022.2.4,MacIntel,30.00120005,23,learning,0,resources/alien2_norm.png,0.660568372,resources/alien1_norm.png,0.323930204,TRUE,TRUE,3,0.554507494,red,m,0.2669,alien2,TRUE,2,0.304937676,75,1,0.660568372,x,0.5832,0,126,126,126,1,0.323930204,0.660568372,0.427141787,0.734764761,TRUE,,,,,,,,,,,,,,,,,,,,,,,,,,,,,,,,,
1206ny03,2023-12-06_14h08.47.717,two_step_task_legacy,2022.2.4,MacIntel,30.00120005,23,learning,0,resources/alien1_norm.png,0.340229983,resources/alien2_norm.png,0.647692248,TRUE,TRUE,3,0.304795689,red,m,0.3218,alien2,TRUE,2,0.075391983,76,1,0.647692248,m,0.4741,0,127,127,127,1,0.340229983,0.647692248,0.427069701,0.72143708,FALSE,,,,,,,,,,,,,,,,,,,,,,,,,,,,,,,,,
1206ny03,2023-12-06_14h08.47.717,two_step_task_legacy,2022.2.4,MacIntel,30.00120005,23,learning,1,resources/alien3_norm.png,0.40499619,resources/alien4_norm.png,0.744385778,TRUE,TRUE,2,0.885176767,purple,m,0.3174,alien4,TRUE,2,0.020220155,77,1,0.744385778,m,1.1599,0,128,128,128,1,0.338813549,0.630816083,0.40499619,0.744385778,FALSE,,,,,,,,,,,,,,,,,,,,,,,,,,,,,,,,,
1206ny03,2023-12-06_14h08.47.717,two_step_task_legacy,2022.2.4,MacIntel,30.00120005,23,learning,1,resources/alien4_norm.png,0.724357321,resources/alien3_norm.png,0.444389232,TRUE,TRUE,2,0.998526942,purple,m,0.2848,alien4,TRUE,2,0.476821006,78,1,0.724357321,x,1.0982,0,129,129,129,1,0.336434737,0.661989018,0.444389232,0.724357321,TRUE,,,,,,,,,,,,,,,,,,,,,,,,,,,,,,,,,
1206ny03,2023-12-06_14h08.47.717,two_step_task_legacy,2022.2.4,MacIntel,30.00120005,23,learning,0,resources/alien2_norm.png,0.672971781,resources/alien1_norm.png,0.290559274,TRUE,TRUE,3,0.345118507,red,m,0.2181,alien2,TRUE,3,0.875510068,78,0,0.672971781,x,0.5852,0,130,130,130,1,0.290559274,0.672971781,0.428715926,0.730204744,TRUE,,,,,,,,,,,,,,,,,,,,,,,,,,,,,,,,,
1206ny03,2023-12-06_14h08.47.717,two_step_task_legacy,2022.2.4,MacIntel,30.00120005,23,learning,0,resources/alien1_norm.png,0.316122369,resources/alien2_norm.png,0.620277314,TRUE,TRUE,3,0.208892173,red,m,0.2339,alien2,TRUE,3,0.950756687,78,0,0.620277314,m,0.5653,0,131,131,131,1,0.316122369,0.620277314,0.426712563,0.736924708,FALSE,,,,,,,,,,,,,,,,,,,,,,,,,,,,,,,,,
1206ny03,2023-12-06_14h08.47.717,two_step_task_legacy,2022.2.4,MacIntel,30.00120005,23,learning,0,resources/alien2_norm.png,0.634556363,resources/alien1_norm.png,0.351537647,TRUE,TRUE,3,0.469521492,red,m,0.0818,alien2,TRUE,2,0.181874948,79,1,0.634556363,x,0.4803,0,132,132,132,1,0.351537647,0.634556363,0.428806971,0.745455893,TRUE,,,,,,,,,,,,,,,,,,,,,,,,,,,,,,,,,
1206ny03,2023-12-06_14h08.47.717,two_step_task_legacy,2022.2.4,MacIntel,30.00120005,23,learning,0,resources/alien1_norm.png,0.36337083,resources/alien2_norm.png,0.630455363,TRUE,TRUE,3,0.430012014,red,m,0.4012,alien2,TRUE,2,0.313166388,80,1,0.630455363,m,0.554,0,133,133,133,1,0.36337083,0.630455363,0.393697106,0.746235282,FALSE,,,,,,,,,,,,,,,,,,,,,,,,,,,,,,,,,
1206ny03,2023-12-06_14h08.47.717,two_step_task_legacy,2022.2.4,MacIntel,30.00120005,23,learning,0,resources/alien2_norm.png,0.629464294,resources/alien1_norm.png,0.391533394,TRUE,TRUE,3,0.088237543,red,m,0.3345,alien2,TRUE,2,0.329505333,81,1,0.629464294,x,0.524,0,134,134,134,1,0.391533394,0.629464294,0.40193756,0.744542488,TRUE,,,,,,,,,,,,,,,,,,,,,,,,,,,,,,,,,
1206ny03,2023-12-06_14h08.47.717,two_step_task_legacy,2022.2.4,MacIntel,30.00120005,23,learning,0,resources/alien2_norm.png,0.638245617,resources/alien1_norm.png,0.369719776,TRUE,TRUE,3,0.369745864,red,m,0.2554,alien2,TRUE,2,0.500006979,82,1,0.638245617,x,0.4665,0,135,135,135,1,0.369719776,0.638245617,0.393998803,0.715176093,TRUE,,,,,,,,,,,,,,,,,,,,,,,,,,,,,,,,,
1206ny03,2023-12-06_14h08.47.717,two_step_task_legacy,2022.2.4,MacIntel,30.00120005,23,learning,1,resources/alien1_norm.png,0.366198559,resources/alien2_norm.png,0.649511756,TRUE,TRUE,3,0.818252809,red,x,0.6713,alien2,TRUE,2,0.590721223,83,1,0.649511756,m,0.5995,0,136,136,136,1,0.366198559,0.649511756,0.413754202,0.707095008,FALSE,,,,,,,,,,,,,,,,,,,,,,,,,,,,,,,,,
1206ny03,2023-12-06_14h08.47.717,two_step_task_legacy,2022.2.4,MacIntel,30.00120005,23,learning,1,resources/alien3_norm.png,0.397718097,resources/alien4_norm.png,0.712484856,TRUE,TRUE,2,0.89979358,purple,m,0.2175,alien4,TRUE,3,0.974373642,83,0,0.712484856,m,1.0782,0,137,137,137,1,0.382888211,0.652072629,0.397718097,0.712484856,FALSE,,,,,,,,,,,,,,,,,,,,,,,,,,,,,,,,,
1206ny03,2023-12-06_14h08.47.717,two_step_task_legacy,2022.2.4,MacIntel,30.00120005,23,learning,0,resources/alien2_norm.png,0.668249043,resources/alien1_norm.png,0.343581066,TRUE,TRUE,3,0.244974152,red,m,0.3064,alien2,TRUE,2,0.096945032,84,1,0.668249043,x,0.4771,0,138,138,138,1,0.343581066,0.668249043,0.403132479,0.693717942,TRUE,,,,,,,,,,,,,,,,,,,,,,,,,,,,,,,,,
1206ny03,2023-12-06_14h08.47.717,two_step_task_legacy,2022.2.4,MacIntel,30.00120005,23,learning,0,resources/alien1_norm.png,0.363838317,resources/alien2_norm.png,0.672524194,TRUE,TRUE,3,0.235872162,red,m,0.3032,alien2,TRUE,2,0.274844693,85,1,0.672524194,m,0.4642,0,139,139,139,1,0.363838317,0.672524194,0.435461559,0.688514127,FALSE,,,,,,,,,,,,,,,,,,,,,,,,,,,,,,,,,
1206ny03,2023-12-06_14h08.47.717,two_step_task_legacy,2022.2.4,MacIntel,30.00120005,23,learning,0,resources/alien2_norm.png,0.710972025,resources/alien1_norm.png,0.379344852,TRUE,TRUE,3,0.074042965,red,m,0.3003,alien2,TRUE,2,0.345657355,86,1,0.710972025,x,0.4802,0,140,140,140,1,0.379344852,0.710972025,0.439845091,0.693632034,TRUE,,,,,,,,,,,,,,,,,,,,,,,,,,,,,,,,,
1206ny03,2023-12-06_14h08.47.717,two_step_task_legacy,2022.2.4,MacIntel,30.00120005,23,learning,0,resources/alien1_norm.png,0.373374152,resources/alien2_norm.png,0.729873496,TRUE,TRUE,3,0.431122797,red,m,0.6383,alien2,TRUE,2,0.102950594,87,1,0.729873496,m,0.5517,0,141,141,141,1,0.373374152,0.729873496,0.431317014,0.69214813,FALSE,,,,,,,,,,,,,,,,,,,,,,,,,,,,,,,,,
1206ny03,2023-12-06_14h08.47.717,two_step_task_legacy,2022.2.4,MacIntel,30.00120005,23,learning,0,resources/alien2_norm.png,0.716383606,resources/alien1_norm.png,0.390669051,TRUE,TRUE,3,0.15579156,red,m,0.4834,alien2,TRUE,3,0.825152627,87,0,0.716383606,x,0.5847,0,142,142,142,1,0.390669051,0.716383606,0.452030427,0.674123188,TRUE,,,,,,,,,,,,,,,,,,,,,,,,,,,,,,,,,
1206ny03,2023-12-06_14h08.47.717,two_step_task_legacy,2022.2.4,MacIntel,30.00120005,23,learning,1,resources/alien4_norm.png,0.639333921,resources/alien3_norm.png,0.442360919,TRUE,TRUE,2,0.944516423,purple,m,0.3087,alien4,TRUE,2,0.254804658,88,1,0.639333921,x,0.612,0,143,143,143,1,0.339477736,0.744969912,0.442360919,0.639333921,TRUE,,,,,,,,,,,,,,,,,,,,,,,,,,,,,,,,,
1206ny03,2023-12-06_14h08.47.717,two_step_task_legacy,2022.2.4,MacIntel,30.00120005,23,learning,1,resources/alien4_norm.png,0.612593584,resources/alien3_norm.png,0.42051828,TRUE,TRUE,2,0.972784434,purple,m,0.3653,alien4,TRUE,3,0.689633731,88,0,0.612593584,x,0.6165,0,144,144,144,1,0.317803938,0.710844956,0.42051828,0.612593584,TRUE,,,,,,,,,,,,,,,,,,,,,,,,,,,,,,,,,
1206ny03,2023-12-06_14h08.47.717,two_step_task_legacy,2022.2.4,MacIntel,30.00120005,23,learning,1,resources/alien4_norm.png,0.635215037,resources/alien3_norm.png,0.446044137,TRUE,TRUE,2,0.845652767,purple,m,0.05,alien4,TRUE,2,0.583941697,89,1,0.635215037,x,0.5329,0,145,145,145,1,0.311104109,0.746481624,0.446044137,0.635215037,TRUE,,,,,,,,,,,,,,,,,,,,,,,,,,,,,,,,,
1206ny03,2023-12-06_14h08.47.717,two_step_task_legacy,2022.2.4,MacIntel,30.00120005,23,learning,0,resources/alien1_norm.png,0.322435636,resources/alien2_norm.png,0.748817246,TRUE,TRUE,3,0.017583524,red,m,0.35,alien2,TRUE,2,0.198361473,90,1,0.748817246,m,0.5486,0,146,146,146,1,0.322435636,0.748817246,0.457400821,0.626838599,FALSE,,,,,,,,,,,,,,,,,,,,,,,,,,,,,,,,,
1206ny03,2023-12-06_14h08.47.717,two_step_task_legacy,2022.2.4,MacIntel,30.00120005,23,learning,0,resources/alien1_norm.png,0.311003061,resources/alien2_norm.png,0.708845948,TRUE,TRUE,3,0.004128959,red,m,0.5843,alien2,TRUE,2,0.437614949,91,1,0.708845948,m,0.4541,0,147,147,147,1,0.311003061,0.708845948,0.444423405,0.604796627,FALSE,,,,,,,,,,,,,,,,,,,,,,,,,,,,,,,,,
1206ny03,2023-12-06_14h08.47.717,two_step_task_legacy,2022.2.4,MacIntel,30.00120005,23,learning,0,resources/alien2_norm.png,0.709213445,resources/alien1_norm.png,0.323921279,TRUE,TRUE,3,0.615060201,red,m,0.4849,alien2,TRUE,2,0.564490139,92,1,0.709213445,x,0.6666,0,148,148,148,1,0.323921279,0.709213445,0.466381219,0.575008043,TRUE,,,,,,,,,,,,,,,,,,,,,,,,,,,,,,,,,
1206ny03,2023-12-06_14h08.47.717,two_step_task_legacy,2022.2.4,MacIntel,30.00120005,23,learning,1,resources/alien4_norm.png,0.581290383,resources/alien3_norm.png,0.42955844,TRUE,TRUE,2,0.989005559,purple,m,0.1663,alien4,TRUE,2,0.032164621,93,1,0.581290383,x,0.6476,0,149,149,149,1,0.320184667,0.703134316,0.42955844,0.581290383,TRUE,,,,,,,,,,,,,,,,,,,,,,,,,,,,,,,,,
1206ny03,2023-12-06_14h08.47.717,two_step_task_legacy,2022.2.4,MacIntel,30.00120005,23,learning,1,resources/alien4_norm.png,0.6,resources/alien3_norm.png,0.4,TRUE,TRUE,2,0.904968151,purple,m,0.2725,alien4,TRUE,2,0.17633626,94,1,0.6,x,0.5001,0,150,150,150,1,0.3,0.7,0.4,0.6,TRUE,,,,,,,,,,,,,,,,,,,,,,,,,,,,,,,,,
1206ny03,2023-12-06_14h08.47.717,two_step_task_legacy,2022.2.4,MacIntel,30.00120005,23,learning,0,resources/alien2_norm.png,0.7,resources/alien1_norm.png,0.3,TRUE,TRUE,3,0.365662645,red,m,0.4196,alien2,TRUE,3,0.734775519,94,0,0.7,x,0.6282,0,151,151,151,1,0.3,0.7,0.4,0.6,TRUE,,,,,,,,,,,,,,,,,,,,,,,,,,,,,,,,,
1206ny03,2023-12-06_14h08.47.717,two_step_task_legacy,2022.2.4,MacIntel,30.00120005,23,learning,0,resources/alien1_norm.png,0.3,resources/alien2_norm.png,0.7,TRUE,TRUE,3,0.003949389,red,m,0.3504,alien2,TRUE,2,0.063027939,95,1,0.7,m,1.0653,0,152,152,152,1,0.3,0.7,0.4,0.6,FALSE,,,,,,,,,,,,,,,,,,,,,,,,,,,,,,,,,
1206ny03,2023-12-06_14h08.47.717,two_step_task_legacy,2022.2.4,MacIntel,30.00120005,23,learning,0,resources/alien1_norm.png,0.3,resources/alien2_norm.png,0.7,TRUE,TRUE,3,0.388690287,red,m,1.1529,alien2,TRUE,2,0.466727378,96,1,0.7,m,0.5029,0,153,153,153,1,0.3,0.7,0.4,0.6,FALSE,,,,,,,,,,,,,,,,,,,,,,,,,,,,,,,,,
1206ny03,2023-12-06_14h08.47.717,two_step_task_legacy,2022.2.4,MacIntel,30.00120005,23,learning,1,resources/alien3_norm.png,0.4,resources/alien4_norm.png,0.6,TRUE,TRUE,2,0.72580441,purple,m,0.2645,alien4,TRUE,3,0.990215087,96,0,0.6,m,0.942,0,154,154,154,1,0.3,0.7,0.4,0.6,FALSE,,,,,,,,,,,,,,,,,,,,,,,,,,,,,,,,,
1206ny03,2023-12-06_14h08.47.717,two_step_task_legacy,2022.2.4,MacIntel,30.00120005,23,learning,1,resources/alien3_norm.png,0.4,resources/alien4_norm.png,0.6,TRUE,TRUE,2,0.735068079,purple,m,0.533,alien4,TRUE,2,0.032509003,97,1,0.6,m,0.5649,0,155,155,155,1,0.3,0.7,0.4,0.6,FALSE,,,,,,,,,,,,,,,,,,,,,,,,,,,,,,,,,
1206ny03,2023-12-06_14h08.47.717,two_step_task_legacy,2022.2.4,MacIntel,30.00120005,23,learning,0,resources/alien2_norm.png,0.7,resources/alien1_norm.png,0.3,TRUE,TRUE,3,0.470236158,red,m,0.7845,alien2,TRUE,3,0.703316899,97,0,0.7,x,0.854,0,156,156,156,1,0.3,0.7,0.4,0.6,TRUE,,,,,,,,,,,,,,,,,,,,,,,,,,,,,,,,,
1206ny03,2023-12-06_14h08.47.717,two_step_task_legacy,2022.2.4,MacIntel,30.00120005,23,learning,0,resources/alien1_norm.png,0.3,resources/alien2_norm.png,0.7,TRUE,TRUE,3,0.631154708,red,m,0.8364,alien2,TRUE,3,0.781292184,97,0,0.7,m,0.4817,0,157,157,157,1,0.3,0.7,0.4,0.6,FALSE,,,,,,,,,,,,,,,,,,,,,,,,,,,,,,,,,
1206ny03,2023-12-06_14h08.47.717,two_step_task_legacy,2022.2.4,MacIntel,30.00120005,23,learning,0,resources/alien1_norm.png,0.3,resources/alien2_norm.png,0.7,TRUE,TRUE,3,0.698045356,red,m,0.3838,alien1,TRUE,3,0.409968265,97,0,0.3,x,0.8843,0,158,158,158,1,0.3,0.7,0.4,0.6,FALSE,,,,,,,,,,,,,,,,,,,,,,,,,,,,,,,,,
1206ny03,2023-12-06_14h08.47.717,two_step_task_legacy,2022.2.4,MacIntel,30.00120005,23,learning,1,resources/alien2_norm.png,0.7,resources/alien1_norm.png,0.3,TRUE,TRUE,3,0.776126398,red,x,0.6183,alien2,TRUE,2,0.535172796,98,1,0.7,x,0.8985,0,159,159,159,1,0.3,0.7,0.4,0.6,TRUE,,,,,,,,,,,,,,,,,,,,,,,,,,,,,,,,,
1206ny03,2023-12-06_14h08.47.717,two_step_task_legacy,2022.2.4,MacIntel,30.00120005,23,learning,0,resources/alien3_norm.png,0.4,resources/alien4_norm.png,0.6,TRUE,TRUE,2,0.372943751,purple,x,0.2855,alien4,TRUE,2,0.4468257,99,1,0.6,m,0.6914,0,160,160,160,1,0.3,0.7,0.4,0.6,FALSE,,,,,,,,,,,,,,,,,,,,,,,,,,,,,,,,,
1206ny03,2023-12-06_14h08.47.717,two_step_task_legacy,2022.2.4,MacIntel,30.00120005,23,learning,0,resources/alien4_norm.png,0.6,resources/alien3_norm.png,0.4,TRUE,TRUE,2,0.100222851,purple,x,0.2711,alien3,TRUE,2,0.237861674,100,1,0.4,m,0.3474,0,161,161,161,1,0.3,0.7,0.4,0.6,TRUE,,,,,,,,,,,,,,,,,,,,,,,,,,,,,,,,,
1206ny03,2023-12-06_14h08.47.717,two_step_task_legacy,2022.2.4,MacIntel,30.00120005,23,learning,1,resources/alien1_norm.png,0.3,resources/alien2_norm.png,0.7,TRUE,TRUE,3,0.817878002,red,x,0.2989,alien2,TRUE,3,0.992024906,100,0,0.7,m,0.9941,0,162,162,162,1,0.3,0.7,0.4,0.6,FALSE,,,,,,,,,,,,,,,,,,,,,,,,,,,,,,,,,
1206ny03,2023-12-06_14h08.47.717,two_step_task_legacy,2022.2.4,MacIntel,30.00120005,23,learning,1,,,,,FALSE,FALSE,3,0.81444466,red,,,,,,,,,,,,0,163,163,163,1,0.3,0.7,0.4,0.6,FALSE,,,,,,,,,,,,,,,,,,,,,,,,,,,,,,,,,
1206ny03,2023-12-06_14h08.47.717,two_step_task_legacy,2022.2.4,MacIntel,30.00120005,23,learning,0,resources/alien1_norm.png,0.3,resources/alien2_norm.png,0.7,TRUE,TRUE,3,0.292370487,red,m,1.3341,alien2,TRUE,2,0.108689011,101,1,0.7,m,1.0009,0,164,164,164,1,0.3,0.7,0.4,0.6,FALSE,,,,,,,,,,,,,,,,,,,,,,,,,,,,,,,,,
1206ny03,2023-12-06_14h08.47.717,two_step_task_legacy,2022.2.4,MacIntel,30.00120005,23,learning,1,resources/alien3_norm.png,0.4,resources/alien4_norm.png,0.6,TRUE,TRUE,2,0.899144377,purple,m,0.3823,alien4,TRUE,2,0.263244718,102,1,0.6,m,0.6691,0,165,165,165,1,0.3,0.7,0.4,0.6,FALSE,,,,,,,,,,,,,,,,,,,,,,,,,,,,,,,,,
1206ny03,2023-12-06_14h08.47.717,two_step_task_legacy,2022.2.4,MacIntel,30.00120005,23,learning,1,resources/alien4_norm.png,0.6,resources/alien3_norm.png,0.4,TRUE,TRUE,2,0.804744055,purple,m,0.3524,alien3,TRUE,3,0.991037183,102,0,0.4,m,0.3174,0,166,166,166,1,0.3,0.7,0.4,0.6,TRUE,,,,,,,,,,,,,,,,,,,,,,,,,,,,,,,,,
1206ny03,2023-12-06_14h08.47.717,two_step_task_legacy,2022.2.4,MacIntel,30.00120005,23,learning,0,resources/alien1_norm.png,0.3,resources/alien2_norm.png,0.7,TRUE,TRUE,3,0.692940534,red,m,0.2152,alien2,TRUE,3,0.792199913,102,0,0.7,m,0.5103,0,167,167,167,1,0.3,0.7,0.4,0.6,FALSE,,,,,,,,,,,,,,,,,,,,,,,,,,,,,,,,,
1206ny03,2023-12-06_14h08.47.717,two_step_task_legacy,2022.2.4,MacIntel,30.00120005,23,learning,0,resources/alien1_norm.png,0.3,resources/alien2_norm.png,0.7,TRUE,TRUE,3,0.588111153,red,m,0.3806,alien2,TRUE,2,0.011597558,103,1,0.7,m,0.6156,0,168,168,168,1,0.3,0.7,0.4,0.6,FALSE,,,,,,,,,,,,,,,,,,,,,,,,,,,,,,,,,
1206ny03,2023-12-06_14h08.47.717,two_step_task_legacy,2022.2.4,MacIntel,30.00120005,23,learning,0,resources/alien2_norm.png,0.7,resources/alien1_norm.png,0.3,TRUE,TRUE,3,0.434172747,red,m,0.4017,alien2,TRUE,2,0.065465032,104,1,0.7,x,0.5813,0,169,169,169,1,0.3,0.7,0.4,0.6,TRUE,,,,,,,,,,,,,,,,,,,,,,,,,,,,,,,,,
1206ny03,2023-12-06_14h08.47.717,two_step_task_legacy,2022.2.4,MacIntel,30.00120005,23,learning,0,resources/alien2_norm.png,0.7,resources/alien1_norm.png,0.3,TRUE,TRUE,3,0.587432255,red,m,0.2712,alien2,TRUE,2,0.408161036,105,1,0.7,x,0.467,0,170,170,170,1,0.3,0.7,0.4,0.6,TRUE,,,,,,,,,,,,,,,,,,,,,,,,,,,,,,,,,
1206ny03,2023-12-06_14h08.47.717,two_step_task_legacy,2022.2.4,MacIntel,30.00120005,23,learning,0,resources/alien1_norm.png,0.3,resources/alien2_norm.png,0.7,TRUE,TRUE,3,0.641825122,red,m,0.4168,alien2,TRUE,2,0.133967749,106,1,0.7,m,0.4994,0,171,171,171,1,0.3,0.7,0.4,0.6,FALSE,,,,,,,,,,,,,,,,,,,,,,,,,,,,,,,,,
1206ny03,2023-12-06_14h08.47.717,two_step_task_legacy,2022.2.4,MacIntel,30.00120005,23,learning,0,resources/alien2_norm.png,0.7,resources/alien1_norm.png,0.3,TRUE,TRUE,3,0.197668517,red,m,0.3083,alien2,TRUE,3,0.972829689,106,0,0.7,x,1.0544,0,172,172,172,1,0.3,0.7,0.4,0.6,TRUE,,,,,,,,,,,,,,,,,,,,,,,,,,,,,,,,,
1206ny03,2023-12-06_14h08.47.717,two_step_task_legacy,2022.2.4,MacIntel,30.00120005,23,learning,0,resources/alien1_norm.png,0.3,resources/alien2_norm.png,0.7,TRUE,TRUE,3,0.22233724,red,m,1.9148,alien2,TRUE,2,0.389388398,107,1,0.7,m,0.4554,0,173,173,173,1,0.3,0.7,0.4,0.6,FALSE,,,,,,,,,,,,,,,,,,,,,,,,,,,,,,,,,
1206ny03,2023-12-06_14h08.47.717,two_step_task_legacy,2022.2.4,MacIntel,30.00120005,23,learning,0,resources/alien2_norm.png,0.7,resources/alien1_norm.png,0.3,TRUE,TRUE,3,0.113979372,red,m,0.6829,alien2,TRUE,3,0.925266334,107,0,0.7,x,0.5348,0,174,174,174,1,0.3,0.7,0.4,0.6,TRUE,,,,,,,,,,,,,,,,,,,,,,,,,,,,,,,,,
1206ny03,2023-12-06_14h08.47.717,two_step_task_legacy,2022.2.4,MacIntel,30.00120005,23,learning,0,resources/alien2_norm.png,0.7,resources/alien1_norm.png,0.3,TRUE,TRUE,3,0.115649214,red,m,0.4482,alien2,TRUE,2,0.613105348,108,1,0.7,x,0.5167,0,175,175,175,1,0.3,0.7,0.4,0.6,TRUE,,,,,,,,,,,,,,,,,,,,,,,,,,,,,,,,,
1206ny03,2023-12-06_14h08.47.717,two_step_task_legacy,2022.2.4,MacIntel,30.00120005,23,learning,1,resources/alien3_norm.png,0.4,resources/alien4_norm.png,0.6,TRUE,TRUE,2,0.740799217,purple,m,0.4054,alien3,TRUE,2,0.395801099,109,1,0.4,x,0.646,0,176,176,176,1,0.3,0.7,0.4,0.6,FALSE,,,,,,,,,,,,,,,,,,,,,,,,,,,,,,,,,
1206ny03,2023-12-06_14h08.47.717,two_step_task_legacy,2022.2.4,MacIntel,30.00120005,23,learning,1,resources/alien4_norm.png,0.6,resources/alien3_norm.png,0.4,TRUE,TRUE,2,0.780751481,purple,m,0.3348,alien3,TRUE,2,0.211150596,110,1,0.4,m,0.7672,0,177,177,177,1,0.3,0.7,0.4,0.6,TRUE,,,,,,,,,,,,,,,,,,,,,,,,,,,,,,,,,
1206ny03,2023-12-06_14h08.47.717,two_step_task_legacy,2022.2.4,MacIntel,30.00120005,23,learning,0,resources/alien2_norm.png,0.7,resources/alien1_norm.png,0.3,TRUE,TRUE,3,0.187489971,red,m,0.2024,alien2,TRUE,3,0.985578167,110,0,0.7,x,1.2097,0,178,178,178,1,0.3,0.7,0.4,0.6,TRUE,,,,,,,,,,,,,,,,,,,,,,,,,,,,,,,,,
1206ny03,2023-12-06_14h08.47.717,two_step_task_legacy,2022.2.4,MacIntel,30.00120005,23,learning,0,resources/alien1_norm.png,0.3,resources/alien2_norm.png,0.7,TRUE,TRUE,3,0.432142346,red,m,0.4667,alien2,TRUE,2,0.444754229,111,1,0.7,m,0.6361,0,179,179,179,1,0.3,0.7,0.4,0.6,FALSE,,,,,,,,,,,,,,,,,,,,,,,,,,,,,,,,,
1206ny03,2023-12-06_14h08.47.717,two_step_task_legacy,2022.2.4,MacIntel,30.00120005,23,learning,1,resources/alien3_norm.png,0.4,resources/alien4_norm.png,0.6,TRUE,TRUE,2,0.792700986,purple,m,0.3179,alien3,TRUE,3,0.61969878,111,0,0.4,x,0.743,0,180,180,180,1,0.3,0.7,0.4,0.6,FALSE,,,,,,,,,,,,,,,,,,,,,,,,,,,,,,,,,
1206ny03,2023-12-06_14h08.47.717,two_step_task_legacy,2022.2.4,MacIntel,30.00120005,23,learning,0,resources/alien2_norm.png,0.7,resources/alien1_norm.png,0.3,TRUE,TRUE,3,0.145477348,red,m,0.1162,alien2,TRUE,3,0.969963821,111,0,0.7,x,0.5594,0,181,181,181,1,0.3,0.7,0.4,0.6,TRUE,,,,,,,,,,,,,,,,,,,,,,,,,,,,,,,,,
1206ny03,2023-12-06_14h08.47.717,two_step_task_legacy,2022.2.4,MacIntel,30.00120005,23,learning,0,resources/alien1_norm.png,0.3,resources/alien2_norm.png,0.7,TRUE,TRUE,3,0.39784452,red,m,0.4663,alien2,TRUE,2,0.605873588,112,1,0.7,m,0.5201,0,182,182,182,1,0.3,0.7,0.4,0.6,FALSE,,,,,,,,,,,,,,,,,,,,,,,,,,,,,,,,,
1206ny03,2023-12-06_14h08.47.717,two_step_task_legacy,2022.2.4,MacIntel,30.00120005,23,learning,0,resources/alien4_norm.png,0.6,resources/alien3_norm.png,0.4,TRUE,TRUE,2,0.322630128,purple,x,0.2843,alien3,TRUE,3,0.908360258,112,0,0.4,m,0.5667,0,183,183,183,1,0.3,0.7,0.4,0.6,TRUE,,,,,,,,,,,,,,,,,,,,,,,,,,,,,,,,,
1206ny03,2023-12-06_14h08.47.717,two_step_task_legacy,2022.2.4,MacIntel,30.00120005,23,learning,1,resources/alien1_norm.png,0.3,resources/alien2_norm.png,0.7,TRUE,TRUE,3,0.959087647,red,x,0.1184,alien2,TRUE,2,0.12042916,113,1,0.7,m,0.5628,0,184,184,184,1,0.3,0.7,0.4,0.6,FALSE,,,,,,,,,,,,,,,,,,,,,,,,,,,,,,,,,
1206ny03,2023-12-06_14h08.47.717,two_step_task_legacy,2022.2.4,MacIntel,30.00120005,23,learning,1,resources/alien1_norm.png,0.3,resources/alien2_norm.png,0.7,TRUE,TRUE,3,0.945560586,red,x,0.5686,alien2,TRUE,2,0.230024437,114,1,0.7,m,0.501,0,185,185,185,1,0.3,0.7,0.4,0.6,FALSE,,,,,,,,,,,,,,,,,,,,,,,,,,,,,,,,,
1206ny03,2023-12-06_14h08.47.717,two_step_task_legacy,2022.2.4,MacIntel,30.00120005,23,learning,0,resources/alien3_norm.png,0.4,resources/alien4_norm.png,0.6,TRUE,TRUE,2,0.395931682,purple,x,0.2675,alien3,TRUE,2,0.312524445,115,1,0.4,x,1.2525,0,186,186,186,1,0.3,0.7,0.4,0.6,FALSE,,,,,,,,,,,,,,,,,,,,,,,,,,,,,,,,,
1206ny03,2023-12-06_14h08.47.717,two_step_task_legacy,2022.2.4,MacIntel,30.00120005,23,learning,0,resources/alien3_norm.png,0.4,resources/alien4_norm.png,0.6,TRUE,TRUE,2,0.022527241,purple,x,0.2669,alien3,TRUE,3,0.488194008,115,0,0.4,x,0.517,0,187,187,187,1,0.3,0.7,0.4,0.6,FALSE,,,,,,,,,,,,,,,,,,,,,,,,,,,,,,,,,
1206ny03,2023-12-06_14h08.47.717,two_step_task_legacy,2022.2.4,MacIntel,30.00120005,23,learning,0,resources/alien3_norm.png,0.4,resources/alien4_norm.png,0.6,TRUE,TRUE,2,0.379386317,purple,x,0.0488,alien3,TRUE,2,0.002235784,116,1,0.4,x,0.5511,0,188,188,188,1,0.3,0.7,0.4,0.6,FALSE,,,,,,,,,,,,,,,,,,,,,,,,,,,,,,,,,
1206ny03,2023-12-06_14h08.47.717,two_step_task_legacy,2022.2.4,MacIntel,30.00120005,23,learning,1,resources/alien2_norm.png,0.7,resources/alien1_norm.png,0.3,TRUE,TRUE,3,0.943943925,red,x,0.2352,alien2,TRUE,3,0.88786591,116,0,0.7,x,0.4288,0,189,189,189,1,0.3,0.7,0.4,0.6,TRUE,,,,,,,,,,,,,,,,,,,,,,,,,,,,,,,,,
1206ny03,2023-12-06_14h08.47.717,two_step_task_legacy,2022.2.4,MacIntel,30.00120005,23,learning,1,resources/alien2_norm.png,0.7,resources/alien1_norm.png,0.3,TRUE,TRUE,3,0.711792903,red,x,0.0887,alien2,TRUE,2,0.230686954,117,1,0.7,x,0.5138,0,190,190,190,1,0.3,0.7,0.4,0.6,TRUE,,,,,,,,,,,,,,,,,,,,,,,,,,,,,,,,,
1206ny03,2023-12-06_14h08.47.717,two_step_task_legacy,2022.2.4,MacIntel,30.00120005,23,learning,1,resources/alien2_norm.png,0.7,resources/alien1_norm.png,0.3,TRUE,TRUE,3,0.757738864,red,x,0.2879,alien2,TRUE,2,0.097184525,118,1,0.7,x,0.4193,0,191,191,191,1,0.3,0.7,0.4,0.6,TRUE,,,,,,,,,,,,,,,,,,,,,,,,,,,,,,,,,
1206ny03,2023-12-06_14h08.47.717,two_step_task_legacy,2022.2.4,MacIntel,30.00120005,23,learning,0,resources/alien4_norm.png,0.6,resources/alien3_norm.png,0.4,TRUE,TRUE,2,0.636028967,purple,x,0.1169,alien3,TRUE,3,0.535544897,118,0,0.4,m,0.8456,0,192,192,192,1,0.3,0.7,0.4,0.6,TRUE,,,,,,,,,,,,,,,,,,,,,,,,,,,,,,,,,
1206ny03,2023-12-06_14h08.47.717,two_step_task_legacy,2022.2.4,MacIntel,30.00120005,23,learning,1,resources/alien4_norm.png,0.6,resources/alien3_norm.png,0.4,TRUE,TRUE,2,0.738082002,purple,m,0.5242,alien3,TRUE,2,0.07184853,119,1,0.4,m,0.5853,0,193,193,193,1,0.3,0.7,0.4,0.6,TRUE,,,,,,,,,,,,,,,,,,,,,,,,,,,,,,,,,
1206ny03,2023-12-06_14h08.47.717,two_step_task_legacy,2022.2.4,MacIntel,30.00120005,23,learning,1,resources/alien4_norm.png,0.6,resources/alien3_norm.png,0.4,TRUE,TRUE,2,0.769962122,purple,m,0.4925,alien3,TRUE,3,0.640197212,119,0,0.4,m,0.487,0,194,194,194,1,0.3,0.7,0.4,0.6,TRUE,,,,,,,,,,,,,,,,,,,,,,,,,,,,,,,,,
1206ny03,2023-12-06_14h08.47.717,two_step_task_legacy,2022.2.4,MacIntel,30.00120005,23,learning,0,resources/alien1_norm.png,0.3,resources/alien2_norm.png,0.7,TRUE,TRUE,3,0.104635654,red,m,0.2334,alien2,TRUE,3,0.940106665,119,0,0.7,m,0.571,0,195,195,195,1,0.3,0.7,0.4,0.6,FALSE,,,,,,,,,,,,,,,,,,,,,,,,,,,,,,,,,
1206ny03,2023-12-06_14h08.47.717,two_step_task_legacy,2022.2.4,MacIntel,30.00120005,23,learning,0,resources/alien2_norm.png,0.7,resources/alien1_norm.png,0.3,TRUE,TRUE,3,0.019085161,red,m,0.0159,alien2,TRUE,2,0.283408372,120,1,0.7,x,0.4303,0,196,196,196,1,0.3,0.7,0.4,0.6,TRUE,,,,,,,,,,,,,,,,,,,,,,,,,,,,,,,,,
1206ny03,2023-12-06_14h08.47.717,two_step_task_legacy,2022.2.4,MacIntel,30.00120005,23,learning,0,resources/alien3_norm.png,0.4,resources/alien4_norm.png,0.6,TRUE,TRUE,2,0.264923222,purple,x,0.2647,alien4,TRUE,2,0.217873125,121,1,0.6,m,0.8615,0,197,197,197,1,0.3,0.7,0.4,0.6,FALSE,,,,,,,,,,,,,,,,,,,,,,,,,,,,,,,,,
1206ny03,2023-12-06_14h08.47.717,two_step_task_legacy,2022.2.4,MacIntel,30.00120005,23,learning,1,resources/alien2_norm.png,0.7,resources/alien1_norm.png,0.3,TRUE,TRUE,3,0.875317642,red,x,1.9316,alien2,TRUE,2,0.453530626,122,1,0.7,x,0.544,0,198,198,198,1,0.3,0.7,0.4,0.6,TRUE,,,,,,,,,,,,,,,,,,,,,,,,,,,,,,,,,
1206ny03,2023-12-06_14h08.47.717,two_step_task_legacy,2022.2.4,MacIntel,30.00120005,23,learning,0,resources/alien3_norm.png,0.4,resources/alien4_norm.png,0.6,TRUE,TRUE,2,0.060829593,purple,x,0.4842,alien4,TRUE,2,0.479392768,123,1,0.6,m,0.5866,0,199,199,199,1,0.3,0.7,0.4,0.6,FALSE,,,,,,,,,,,,,,,,,,,,,,,,,,,,,,,,,
1206ny03,2023-12-06_14h08.47.717,two_step_task_legacy,2022.2.4,MacIntel,30.00120005,23,learning,1,resources/alien1_norm.png,0.3,resources/alien2_norm.png,0.7,TRUE,TRUE,3,0.825830179,red,x,0.6206,alien2,TRUE,2,0.231592962,124,1,0.7,m,0.9966,0,200,200,200,1,0.3,0.7,0.4,0.6,FALSE,,,,,,,,,,,,,,,,,,,,,,,,,,,,,,,,,
1206ny03,2023-12-06_14h08.47.717,two_step_task_legacy,2022.2.4,MacIntel,30.00120005,23,learning,1,resources/alien1_norm.png,0.3,resources/alien2_norm.png,0.7,TRUE,TRUE,3,0.795069592,red,x,1.5204,alien2,TRUE,3,0.84583189,124,0,0.7,m,1.1175,0,201,201,201,1,0.3,0.7,0.4,0.6,FALSE,,,,,,,,,,,,,,,,,,,,,,,,,,,,,,,,,
1206ny03,2023-12-06_14h08.47.717,two_step_task_legacy,2022.2.4,MacIntel,30.00120005,23,learning,0,resources/alien3_norm.png,0.4,resources/alien4_norm.png,0.6,TRUE,TRUE,2,0.311791821,purple,x,2.4363,alien3,TRUE,3,0.663139372,124,0,0.4,x,0.4675,0,202,202,202,1,0.3,0.7,0.4,0.6,FALSE,,,,,,,,,,,,,,,,,,,,,,,,,,,,,,,,,
1206ny03,2023-12-06_14h08.47.717,two_step_task_legacy,2022.2.4,MacIntel,30.00120005,23,learning,1,resources/alien1_norm.png,0.3,resources/alien2_norm.png,0.7,TRUE,TRUE,3,0.942218791,red,x,0.4412,alien2,TRUE,2,0.661202066,125,1,0.7,m,0.5209,0,203,203,203,1,0.3,0.7,0.4,0.6,FALSE,,,,,,,,,,,,,,,,,,,,,,,,,,,,,,,,,
1206ny03,2023-12-06_14h08.47.717,two_step_task_legacy,2022.2.4,MacIntel,30.00120005,23,learning,1,resources/alien3_norm.png,0.4,resources/alien4_norm.png,0.6,TRUE,TRUE,2,0.781067088,purple,m,0.4825,alien4,TRUE,3,0.710667832,125,0,0.6,m,0.5296,0,204,204,204,1,0.3,0.7,0.4,0.6,FALSE,,,,,,,,,,,,,,,,,,,,,,,,,,,,,,,,,
1206ny03,2023-12-06_14h08.47.717,two_step_task_legacy,2022.2.4,MacIntel,30.00120005,23,learning,1,resources/alien3_norm.png,0.4,resources/alien4_norm.png,0.6,TRUE,TRUE,2,0.825664595,purple,m,0.4552,alien4,TRUE,3,0.862294761,125,0,0.6,m,0.501,0,205,205,205,1,0.3,0.7,0.4,0.6,FALSE,,,,,,,,,,,,,,,,,,,,,,,,,,,,,,,,,
1206ny03,2023-12-06_14h08.47.717,two_step_task_legacy,2022.2.4,MacIntel,30.00120005,23,learning,0,,,,,FALSE,FALSE,2,0.301343472,purple,,,,,,,,,,,,0,206,206,206,1,0.3,0.7,0.4,0.6,TRUE,,,,,,,,,,,,,,,,,,,,,,,,,,,,,,,,,
1206ny03,2023-12-06_14h08.47.717,two_step_task_legacy,2022.2.4,MacIntel,30.00120005,23,learning,0,resources/alien4_norm.png,0.6,resources/alien3_norm.png,0.4,TRUE,TRUE,2,0.646192933,purple,x,0.4757,alien4,TRUE,3,0.766075513,125,0,0.6,x,0.4238,0,207,207,207,1,0.3,0.7,0.4,0.6,TRUE,,,,,,,,,,,,,,,,,,,,,,,,,,,,,,,,,
1206ny03,2023-12-06_14h08.47.717,two_step_task_legacy,2022.2.4,MacIntel,30.00120005,23,learning,1,resources/alien1_norm.png,0.3,resources/alien2_norm.png,0.7,TRUE,TRUE,3,0.728060586,red,x,0.35,alien2,TRUE,3,0.979467335,125,0,0.7,m,0.6302,0,208,208,208,1,0.3,0.7,0.4,0.6,FALSE,,,,,,,,,,,,,,,,,,,,,,,,,,,,,,,,,
1206ny03,2023-12-06_14h08.47.717,two_step_task_legacy,2022.2.4,MacIntel,30.00120005,23,learning,0,resources/alien4_norm.png,0.6,resources/alien3_norm.png,0.4,TRUE,TRUE,2,0.374696031,purple,x,0.6187,alien3,TRUE,3,0.574870373,125,0,0.4,m,0.8535,0,209,209,209,1,0.3,0.7,0.4,0.6,TRUE,,,,,,,,,,,,,,,,,,,,,,,,,,,,,,,,,
1206ny03,2023-12-06_14h08.47.717,two_step_task_legacy,2022.2.4,MacIntel,30.00120005,23,learning,1,resources/alien1_norm.png,0.3,resources/alien2_norm.png,0.7,TRUE,TRUE,3,0.741344385,red,x,0.6348,alien1,TRUE,3,0.702246382,125,0,0.3,x,0.2791,0,210,210,210,1,0.3,0.7,0.4,0.6,FALSE,,,,,,,,,,,,,,,,,,,,,,,,,,,,,,,,,
1206ny03,2023-12-06_14h08.47.717,two_step_task_legacy,2022.2.4,MacIntel,30.00120005,23,learning,0,resources/alien3_norm.png,0.4,resources/alien4_norm.png,0.6,TRUE,TRUE,2,0.699911921,purple,x,0.3764,alien4,TRUE,2,0.260698588,126,1,0.6,m,1.4623,0,211,211,211,1,0.3,0.7,0.4,0.6,FALSE,,,,,,,,,,,,,,,,,,,,,,,,,,,,,,,,,
1206ny03,2023-12-06_14h08.47.717,two_step_task_legacy,2022.2.4,MacIntel,30.00120005,23,learning,0,resources/alien4_norm.png,0.6,resources/alien3_norm.png,0.4,TRUE,TRUE,2,0.419319225,purple,x,0.2681,alien4,TRUE,3,0.965872153,126,0,0.6,x,0.5835,0,212,212,212,1,0.3,0.7,0.4,0.6,TRUE,,,,,,,,,,,,,,,,,,,,,,,,,,,,,,,,,
1206ny03,2023-12-06_14h08.47.717,two_step_task_legacy,2022.2.4,MacIntel,30.00120005,23,learning,1,resources/alien4_norm.png,0.6,resources/alien3_norm.png,0.4,TRUE,TRUE,2,0.981743622,purple,m,0.2474,alien4,TRUE,2,0.517726723,127,1,0.6,x,0.4502,0,213,213,213,1,0.3,0.7,0.4,0.6,TRUE,,,,,,,,,,,,,,,,,,,,,,,,,,,,,,,,,
1206ny03,2023-12-06_14h08.47.717,two_step_task_legacy,2022.2.4,MacIntel,30.00120005,23,learning,1,resources/alien4_norm.png,0.6,resources/alien3_norm.png,0.4,TRUE,TRUE,2,0.777245131,purple,m,0.2826,alien4,TRUE,3,0.6361873,127,0,0.6,x,1.1522,0,214,214,214,1,0.3,0.7,0.4,0.6,TRUE,,,,,,,,,,,,,,,,,,,,,,,,,,,,,,,,,
1206ny03,2023-12-06_14h08.47.717,two_step_task_legacy,2022.2.4,MacIntel,30.00120005,23,learning,0,resources/alien3_norm.png,0.4,resources/alien4_norm.png,0.6,TRUE,TRUE,2,0.272009746,purple,x,0.4051,alien4,TRUE,3,0.691988985,127,0,0.6,m,0.5977,0,215,215,215,1,0.3,0.7,0.4,0.6,FALSE,,,,,,,,,,,,,,,,,,,,,,,,,,,,,,,,,
1206ny03,2023-12-06_14h08.47.717,two_step_task_legacy,2022.2.4,MacIntel,30.00120005,23,learning,0,resources/alien2_norm.png,0.7,resources/alien1_norm.png,0.3,TRUE,TRUE,3,0.653419176,red,m,0.5693,alien2,TRUE,2,0.244938989,128,1,0.7,x,1.0646,0,216,216,216,1,0.3,0.7,0.4,0.6,TRUE,,,,,,,,,,,,,,,,,,,,,,,,,,,,,,,,,
1206ny03,2023-12-06_14h08.47.717,two_step_task_legacy,2022.2.4,MacIntel,30.00120005,23,learning,0,resources/alien3_norm.png,0.4,resources/alien4_norm.png,0.6,TRUE,TRUE,2,0.094839276,purple,x,0.5519,alien4,TRUE,2,0.532761655,129,1,0.6,m,0.8031,0,217,217,217,1,0.3,0.7,0.4,0.6,FALSE,,,,,,,,,,,,,,,,,,,,,,,,,,,,,,,,,
1206ny03,2023-12-06_14h08.47.717,two_step_task_legacy,2022.2.4,MacIntel,30.00120005,23,learning,0,resources/alien4_norm.png,0.6,resources/alien3_norm.png,0.4,TRUE,TRUE,2,0.261706808,purple,x,1.5479,alien4,TRUE,3,0.996138717,129,0,0.6,x,0.4201,0,218,218,218,1,0.3,0.7,0.4,0.6,TRUE,,,,,,,,,,,,,,,,,,,,,,,,,,,,,,,,,
1206ny03,2023-12-06_14h08.47.717,two_step_task_legacy,2022.2.4,MacIntel,30.00120005,23,learning,1,resources/alien2_norm.png,0.7,resources/alien1_norm.png,0.3,TRUE,TRUE,3,0.934135118,red,x,0.2882,alien2,TRUE,2,0.289925021,130,1,0.7,x,0.576,0,219,219,219,1,0.3,0.7,0.4,0.6,TRUE,,,,,,,,,,,,,,,,,,,,,,,,,,,,,,,,,
1206ny03,2023-12-06_14h08.47.717,two_step_task_legacy,2022.2.4,MacIntel,30.00120005,23,learning,0,resources/alien4_norm.png,0.6,resources/alien3_norm.png,0.4,TRUE,TRUE,2,0.680270796,purple,x,0.334,alien4,TRUE,3,0.712348619,130,0,0.6,x,0.5135,0,220,220,220,1,0.3,0.7,0.4,0.6,TRUE,,,,,,,,,,,,,,,,,,,,,,,,,,,,,,,,,
1206ny03,2023-12-06_14h08.47.717,two_step_task_legacy,2022.2.4,MacIntel,30.00120005,23,learning,1,resources/alien1_norm.png,0.3,resources/alien2_norm.png,0.7,TRUE,TRUE,3,0.967587225,red,x,0.5374,alien2,TRUE,2,0.676658145,131,1,0.7,m,0.5449,0,221,221,221,1,0.3,0.7,0.4,0.6,FALSE,,,,,,,,,,,,,,,,,,,,,,,,,,,,,,,,,
1206ny03,2023-12-06_14h08.47.717,two_step_task_legacy,2022.2.4,MacIntel,30.00120005,23,learning,0,resources/alien4_norm.png,0.6,resources/alien3_norm.png,0.4,TRUE,TRUE,2,0.119762691,purple,x,0.3537,alien4,TRUE,3,0.65228499,131,0,0.6,x,0.4018,0,222,222,222,1,0.3,0.7,0.4,0.6,TRUE,,,,,,,,,,,,,,,,,,,,,,,,,,,,,,,,,
1206ny03,2023-12-06_14h08.47.717,two_step_task_legacy,2022.2.4,MacIntel,30.00120005,23,learning,0,resources/alien3_norm.png,0.4,resources/alien4_norm.png,0.6,TRUE,TRUE,2,0.061085429,purple,x,0.4007,alien4,TRUE,2,0.493985395,132,1,0.6,m,0.6321,0,223,223,223,1,0.3,0.7,0.4,0.6,FALSE,,,,,,,,,,,,,,,,,,,,,,,,,,,,,,,,,
1206ny03,2023-12-06_14h08.47.717,two_step_task_legacy,2022.2.4,MacIntel,30.00120005,23,learning,0,resources/alien4_norm.png,0.6,resources/alien3_norm.png,0.4,TRUE,TRUE,2,0.232922112,purple,x,0.4176,alien4,TRUE,3,0.806770355,132,0,0.6,x,0.5189,0,224,224,224,1,0.3,0.7,0.4,0.6,TRUE,,,,,,,,,,,,,,,,,,,,,,,,,,,,,,,,,
1206ny03,2023-12-06_14h08.47.717,two_step_task_legacy,2022.2.4,MacIntel,30.00120005,23,learning,0,resources/alien4_norm.png,0.6,resources/alien3_norm.png,0.4,TRUE,TRUE,2,0.342125801,purple,x,0.2568,alien4,TRUE,2,0.137636271,133,1,0.6,x,0.4042,0,225,225,225,1,0.3,0.7,0.4,0.6,TRUE,,,,,,,,,,,,,,,,,,,,,,,,,,,,,,,,,
1206ny03,2023-12-06_14h08.47.717,two_step_task_legacy,2022.2.4,MacIntel,30.00120005,23,learning,0,resources/alien4_norm.png,0.6,resources/alien3_norm.png,0.4,TRUE,TRUE,2,0.601710192,purple,x,0.3672,alien4,TRUE,2,0.061839785,134,1,0.6,x,0.5003,0,226,226,226,1,0.3,0.7,0.4,0.6,TRUE,,,,,,,,,,,,,,,,,,,,,,,,,,,,,,,,,
1206ny03,2023-12-06_14h08.47.717,two_step_task_legacy,2022.2.4,MacIntel,30.00120005,23,learning,0,resources/alien4_norm.png,0.6,resources/alien3_norm.png,0.4,TRUE,TRUE,2,0.294613823,purple,x,0.419,alien4,TRUE,2,0.024420769,135,1,0.6,x,0.486,0,227,227,227,1,0.3,0.7,0.4,0.6,TRUE,,,,,,,,,,,,,,,,,,,,,,,,,,,,,,,,,
1206ny03,2023-12-06_14h08.47.717,two_step_task_legacy,2022.2.4,MacIntel,30.00120005,23,learning,1,resources/alien1_norm.png,0.3,resources/alien2_norm.png,0.7,TRUE,TRUE,3,0.963589279,red,x,0.4354,alien1,TRUE,3,0.928106322,135,0,0.3,x,0.4282,0,228,228,228,1,0.3,0.7,0.4,0.6,FALSE,,,,,,,,,,,,,,,,,,,,,,,,,,,,,,,,,
1206ny03,2023-12-06_14h08.47.717,two_step_task_legacy,2022.2.4,MacIntel,30.00120005,23,learning,0,resources/alien4_norm.png,0.6,resources/alien3_norm.png,0.4,TRUE,TRUE,2,0.283384481,purple,x,0.3487,alien4,TRUE,3,0.639931324,135,0,0.6,x,0.4775,0,229,229,229,1,0.3,0.7,0.4,0.6,TRUE,,,,,,,,,,,,,,,,,,,,,,,,,,,,,,,,,
1206ny03,2023-12-06_14h08.47.717,two_step_task_legacy,2022.2.4,MacIntel,30.00120005,23,learning,0,resources/alien4_norm.png,0.6,resources/alien3_norm.png,0.4,TRUE,TRUE,2,0.172773096,purple,x,0.2727,alien4,TRUE,3,0.831971092,135,0,0.6,x,0.4346,0,230,230,230,1,0.3,0.7,0.4,0.6,TRUE,,,,,,,,,,,,,,,,,,,,,,,,,,,,,,,,,
1206ny03,2023-12-06_14h08.47.717,two_step_task_legacy,2022.2.4,MacIntel,30.00120005,23,learning,0,resources/alien4_norm.png,0.6,resources/alien3_norm.png,0.4,TRUE,TRUE,2,0.25565609,purple,x,0.2832,alien4,TRUE,3,0.926962193,135,0,0.6,x,0.4664,0,231,231,231,1,0.3,0.7,0.4,0.6,TRUE,,,,,,,,,,,,,,,,,,,,,,,,,,,,,,,,,
1206ny03,2023-12-06_14h08.47.717,two_step_task_legacy,2022.2.4,MacIntel,30.00120005,23,learning,0,resources/alien3_norm.png,0.4,resources/alien4_norm.png,0.6,TRUE,TRUE,2,0.005562982,purple,x,0.4183,alien4,TRUE,3,0.986644514,135,0,0.6,m,1.2144,0,232,232,232,1,0.3,0.7,0.4,0.6,FALSE,,,,,,,,,,,,,,,,,,,,,,,,,,,,,,,,,
1206ny03,2023-12-06_14h08.47.717,two_step_task_legacy,2022.2.4,MacIntel,30.00120005,23,learning,0,resources/alien4_norm.png,0.6,resources/alien3_norm.png,0.4,TRUE,TRUE,2,0.284158314,purple,x,0.5506,alien4,TRUE,3,0.743321066,135,0,0.6,x,0.399,0,233,233,233,1,0.3,0.7,0.4,0.6,TRUE,,,,,,,,,,,,,,,,,,,,,,,,,,,,,,,,,
1206ny03,2023-12-06_14h08.47.717,two_step_task_legacy,2022.2.4,MacIntel,30.00120005,23,learning,1,resources/alien1_norm.png,0.3,resources/alien2_norm.png,0.7,TRUE,TRUE,3,0.961659789,red,x,0.4209,alien2,TRUE,3,0.813508939,135,0,0.7,m,0.7246,0,234,234,234,1,0.3,0.7,0.4,0.6,FALSE,,,,,,,,,,,,,,,,,,,,,,,,,,,,,,,,,
1206ny03,2023-12-06_14h08.47.717,two_step_task_legacy,2022.2.4,MacIntel,30.00120005,23,learning,0,resources/alien1_norm.png,0.3,resources/alien2_norm.png,0.7,TRUE,TRUE,3,0.141712905,red,m,1.2999,alien2,TRUE,3,0.839679615,135,0,0.7,m,0.8036,0,235,235,235,1,0.3,0.7,0.4,0.6,FALSE,,,,,,,,,,,,,,,,,,,,,,,,,,,,,,,,,
1206ny03,2023-12-06_14h08.47.717,two_step_task_legacy,2022.2.4,MacIntel,30.00120005,23,learning,0,resources/alien3_norm.png,0.4,resources/alien4_norm.png,0.6,TRUE,TRUE,2,0.528421815,purple,x,0.5828,alien4,TRUE,2,0.540508969,136,1,0.6,m,1.3918,0,236,236,236,1,0.3,0.7,0.4,0.6,FALSE,,,,,,,,,,,,,,,,,,,,,,,,,,,,,,,,,
1206ny03,2023-12-06_14h08.47.717,two_step_task_legacy,2022.2.4,MacIntel,30.00120005,23,learning,0,resources/alien1_norm.png,0.3,resources/alien2_norm.png,0.7,TRUE,TRUE,3,0.05685568,red,m,0.767,alien2,TRUE,2,0.502688172,137,1,0.7,m,0.5449,0,237,237,237,1,0.3,0.7,0.4,0.6,FALSE,,,,,,,,,,,,,,,,,,,,,,,,,,,,,,,,,
1206ny03,2023-12-06_14h08.47.717,two_step_task_legacy,2022.2.4,MacIntel,30.00120005,23,learning,1,resources/alien3_norm.png,0.4,resources/alien4_norm.png,0.6,TRUE,TRUE,2,0.85545663,purple,m,0.953,alien4,TRUE,3,0.880539266,137,0,0.6,m,0.6629,0,238,238,238,1,0.3,0.7,0.4,0.6,FALSE,,,,,,,,,,,,,,,,,,,,,,,,,,,,,,,,,
1206ny03,2023-12-06_14h08.47.717,two_step_task_legacy,2022.2.4,MacIntel,30.00120005,23,learning,0,resources/alien1_norm.png,0.3,resources/alien2_norm.png,0.7,TRUE,TRUE,3,0.395976111,red,m,0.6877,alien2,TRUE,2,0.308242773,138,1,0.7,m,0.6116,0,239,239,239,1,0.3,0.7,0.4,0.6,FALSE,,,,,,,,,,,,,,,,,,,,,,,,,,,,,,,,,
1206ny03,2023-12-06_14h08.47.717,two_step_task_legacy,2022.2.4,MacIntel,30.00120005,23,learning,1,resources/alien3_norm.png,0.4,resources/alien4_norm.png,0.6,TRUE,TRUE,2,0.825457212,purple,m,0.4509,alien4,TRUE,2,0.434854859,139,1,0.6,m,1.4928,0,240,240,240,1,0.3,0.7,0.4,0.6,FALSE,,,,,,,,,,,,,,,,,,,,,,,,,,,,,,,,,
1206ny03,2023-12-06_14h08.47.717,two_step_task_legacy,2022.2.4,MacIntel,30.00120005,23,learning,0,resources/alien1_norm.png,0.3,resources/alien2_norm.png,0.7,TRUE,TRUE,3,0.115421966,red,m,0.8391,alien2,TRUE,3,0.921753478,139,0,0.7,m,1.1183,0,241,241,241,1,0.3,0.7,0.4,0.6,FALSE,,,,,,,,,,,,,,,,,,,,,,,,,,,,,,,,,
1206ny03,2023-12-06_14h08.47.717,two_step_task_legacy,2022.2.4,MacIntel,30.00120005,23,learning,0,resources/alien3_norm.png,0.4,resources/alien4_norm.png,0.6,TRUE,TRUE,2,0.20052168,purple,x,0.5501,alien4,TRUE,3,0.850568176,139,0,0.6,m,0.734,0,242,242,242,1,0.3,0.7,0.4,0.6,FALSE,,,,,,,,,,,,,,,,,,,,,,,,,,,,,,,,,
1206ny03,2023-12-06_14h08.47.717,two_step_task_legacy,2022.2.4,MacIntel,30.00120005,23,learning,0,resources/alien3_norm.png,0.4,resources/alien4_norm.png,0.6,TRUE,TRUE,2,0.62357157,purple,x,0.4391,alien4,TRUE,3,0.790257996,139,0,0.6,m,0.5911,0,243,243,243,1,0.3,0.7,0.4,0.6,FALSE,,,,,,,,,,,,,,,,,,,,,,,,,,,,,,,,,
1206ny03,2023-12-06_14h08.47.717,two_step_task_legacy,2022.2.4,MacIntel,30.00120005,23,learning,1,resources/alien3_norm.png,0.4,resources/alien4_norm.png,0.6,TRUE,TRUE,2,0.964599328,purple,m,0.5838,alien3,TRUE,3,0.739683808,139,0,0.4,x,0.5164,0,244,244,244,1,0.3,0.7,0.4,0.6,FALSE,,,,,,,,,,,,,,,,,,,,,,,,,,,,,,,,,
1206ny03,2023-12-06_14h08.47.717,two_step_task_legacy,2022.2.4,MacIntel,30.00120005,23,learning,0,resources/alien2_norm.png,0.7,resources/alien1_norm.png,0.3,TRUE,TRUE,3,0.57988511,red,m,0.0511,alien2,TRUE,2,0.552722292,140,1,0.7,x,0.6097,0,245,245,245,1,0.3,0.7,0.4,0.6,TRUE,,,,,,,,,,,,,,,,,,,,,,,,,,,,,,,,,
1206ny03,2023-12-06_14h08.47.717,two_step_task_legacy,2022.2.4,MacIntel,30.00120005,23,learning,0,resources/alien1_norm.png,0.3,resources/alien2_norm.png,0.7,TRUE,TRUE,3,0.532095738,red,m,0.066,alien2,TRUE,2,0.144295827,141,1,0.7,m,0.5326,0,246,246,246,1,0.3,0.7,0.4,0.6,FALSE,,,,,,,,,,,,,,,,,,,,,,,,,,,,,,,,,
1206ny03,2023-12-06_14h08.47.717,two_step_task_legacy,2022.2.4,MacIntel,30.00120005,23,learning,0,resources/alien2_norm.png,0.7,resources/alien1_norm.png,0.3,TRUE,TRUE,3,0.621986175,red,m,0.434,alien2,TRUE,2,0.675279151,142,1,0.7,x,0.7729,0,247,247,247,1,0.3,0.7,0.4,0.6,TRUE,,,,,,,,,,,,,,,,,,,,,,,,,,,,,,,,,
1206ny03,2023-12-06_14h08.47.717,two_step_task_legacy,2022.2.4,MacIntel,30.00120005,23,learning,0,resources/alien2_norm.png,0.7,resources/alien1_norm.png,0.3,TRUE,TRUE,3,0.125061283,red,m,0.772,alien2,TRUE,2,0.312031956,143,1,0.7,x,0.573,0,248,248,248,1,0.3,0.7,0.4,0.6,TRUE,,,,,,,,,,,,,,,,,,,,,,,,,,,,,,,,,
1206ny03,2023-12-06_14h08.47.717,two_step_task_legacy,2022.2.4,MacIntel,30.00120005,23,learning,0,resources/alien1_norm.png,0.3,resources/alien2_norm.png,0.7,TRUE,TRUE,3,0.277262349,red,m,0.2406,alien2,TRUE,3,0.957835792,143,0,0.7,m,0.5219,0,249,249,249,1,0.3,0.7,0.4,0.6,FALSE,,,,,,,,,,,,,,,,,,,,,,,,,,,,,,,,,
1206ny03,2023-12-06_14h08.47.717,two_step_task_legacy,2022.2.4,MacIntel,30.00120005,23,learning,0,resources/alien2_norm.png,0.7,resources/alien1_norm.png,0.3,TRUE,TRUE,3,0.266179081,red,m,0.2353,alien1,TRUE,2,0.272846574,144,1,0.3,m,0.346,0,250,250,250,1,0.3,0.7,0.4,0.6,TRUE,,,,,,,,,,,,,,,,,,,,,,,,,,,,,,,,,
1206ny03,2023-12-06_14h08.47.717,two_step_task_legacy,2022.2.4,MacIntel,30.00120005,23,learning,0,resources/alien1_norm.png,0.3,resources/alien2_norm.png,0.7,TRUE,TRUE,3,0.380561278,red,m,0.3998,alien2,TRUE,2,0.082552098,145,1,0.7,m,0.5669,0,251,251,251,1,0.3,0.7,0.4,0.6,FALSE,,,,,,,,,,,,,,,,,,,,,,,,,,,,,,,,,
1206ny03,2023-12-06_14h08.47.717,two_step_task_legacy,2022.2.4,MacIntel,30.00120005,23,learning,0,resources/alien1_norm.png,0.3,resources/alien2_norm.png,0.7,TRUE,TRUE,3,0.54984605,red,m,0.6744,alien2,TRUE,2,0.465034835,146,1,0.7,m,0.5686,0,252,252,252,1,0.3,0.7,0.4,0.6,FALSE,,,,,,,,,,,,,,,,,,,,,,,,,,,,,,,,,
1206ny03,2023-12-06_14h08.47.717,two_step_task_legacy,2022.2.4,MacIntel,30.00120005,23,learning,0,resources/alien2_norm.png,0.7,resources/alien1_norm.png,0.3,TRUE,TRUE,3,0.497893157,red,m,0.6363,alien2,TRUE,2,0.478074246,147,1,0.7,x,0.4682,0,253,253,253,1,0.3,0.7,0.4,0.6,TRUE,,,,,,,,,,,,,,,,,,,,,,,,,,,,,,,,,
1206ny03,2023-12-06_14h08.47.717,two_step_task_legacy,2022.2.4,MacIntel,30.00120005,23,learning,1,resources/alien4_norm.png,0.6,resources/alien3_norm.png,0.4,TRUE,TRUE,2,0.898164735,purple,m,0.4225,alien4,TRUE,2,0.094572727,148,1,0.6,x,0.8823,0,254,254,254,1,0.3,0.7,0.4,0.6,TRUE,,,,,,,,,,,,,,,,,,,,,,,,,,,,,,,,,
1206ny03,2023-12-06_14h08.47.717,two_step_task_legacy,2022.2.4,MacIntel,30.00120005,23,learning,0,resources/alien1_norm.png,0.3,resources/alien2_norm.png,0.7,TRUE,TRUE,3,0.252112715,red,m,0.3371,alien2,TRUE,2,0.071874892,149,1,0.7,m,0.5768,0,255,255,255,1,0.3,0.7,0.4,0.6,FALSE,,,,,,,,,,,,,,,,,,,,,,,,,,,,,,,,,
1206ny03,2023-12-06_14h08.47.717,two_step_task_legacy,2022.2.4,MacIntel,30.00120005,23,learning,0,resources/alien2_norm.png,0.7,resources/alien1_norm.png,0.3,TRUE,TRUE,3,0.124843276,red,m,0.6363,alien2,TRUE,2,0.494017357,150,1,0.7,x,0.7246,0,256,256,256,1,0.3,0.7,0.4,0.6,TRUE,,,,,,,,,,,,,,,,,,,,,,,,,,,,,,,,,
1206ny03,2023-12-06_14h08.47.717,two_step_task_legacy,2022.2.4,MacIntel,30.00120005,23,learning,1,resources/alien4_norm.png,0.6,resources/alien3_norm.png,0.4,TRUE,TRUE,2,0.811987462,purple,m,0.4011,alien4,TRUE,2,0.162166666,151,1,0.6,x,0.7265,0,257,257,257,1,0.3,0.7,0.4,0.6,TRUE,,,,,,,,,,,,,,,,,,,,,,,,,,,,,,,,,
1206ny03,2023-12-06_14h08.47.717,two_step_task_legacy,2022.2.4,MacIntel,30.00120005,23,learning,0,resources/alien2_norm.png,0.7,resources/alien1_norm.png,0.3,TRUE,TRUE,3,0.646763356,red,m,0.4704,alien2,TRUE,2,0.342280132,152,1,0.7,x,0.5858,0,258,258,258,1,0.3,0.7,0.4,0.6,TRUE,,,,,,,,,,,,,,,,,,,,,,,,,,,,,,,,,
1206ny03,2023-12-06_14h08.47.717,two_step_task_legacy,2022.2.4,MacIntel,30.00120005,23,learning,1,resources/alien4_norm.png,0.6,resources/alien3_norm.png,0.4,TRUE,TRUE,2,0.940705301,purple,m,0.5009,alien4,TRUE,3,0.738026513,152,0,0.6,x,0.6115,0,259,259,259,1,0.3,0.7,0.4,0.6,TRUE,,,,,,,,,,,,,,,,,,,,,,,,,,,,,,,,,
1206ny03,2023-12-06_14h08.47.717,two_step_task_legacy,2022.2.4,MacIntel,30.00120005,23,learning,1,resources/alien4_norm.png,0.6,resources/alien3_norm.png,0.4,TRUE,TRUE,2,0.866679975,purple,m,0.4336,alien4,TRUE,2,0.577626818,153,1,0.6,x,0.7068,0,260,260,260,1,0.3,0.7,0.4,0.6,TRUE,,,,,,,,,,,,,,,,,,,,,,,,,,,,,,,,,
1206ny03,2023-12-06_14h08.47.717,two_step_task_legacy,2022.2.4,MacIntel,30.00120005,23,learning,1,resources/alien3_norm.png,0.4,resources/alien4_norm.png,0.6,TRUE,TRUE,2,0.874764391,purple,m,0.4582,alien4,TRUE,2,0.272953872,154,1,0.6,m,0.6309,0,261,261,261,1,0.3,0.7,0.4,0.6,FALSE,,,,,,,,,,,,,,,,,,,,,,,,,,,,,,,,,
1206ny03,2023-12-06_14h08.47.717,two_step_task_legacy,2022.2.4,MacIntel,30.00120005,23,learning,0,resources/alien2_norm.png,0.7,resources/alien1_norm.png,0.3,TRUE,TRUE,3,0.366481636,red,m,0.4233,alien2,TRUE,3,0.821886276,154,0,0.7,x,0.6445,0,262,262,262,1,0.3,0.7,0.4,0.6,TRUE,,,,,,,,,,,,,,,,,,,,,,,,,,,,,,,,,
1206ny03,2023-12-06_14h08.47.717,two_step_task_legacy,2022.2.4,MacIntel,30.00120005,23,learning,0,resources/alien1_norm.png,0.3,resources/alien2_norm.png,0.7,TRUE,TRUE,3,0.028094117,red,m,0.3679,alien2,TRUE,2,0.535616083,155,1,0.7,m,0.3853,0,263,263,263,1,0.3,0.7,0.4,0.6,FALSE,,,,,,,,,,,,,,,,,,,,,,,,,,,,,,,,,
1206ny03,2023-12-06_14h08.47.717,two_step_task_legacy,2022.2.4,MacIntel,30.00120005,23,learning,0,resources/alien2_norm.png,0.7,resources/alien1_norm.png,0.3,TRUE,TRUE,3,0.363290408,red,m,0.517,alien2,TRUE,3,0.777562389,155,0,0.7,x,0.6677,0,264,264,264,1,0.3,0.7,0.4,0.6,TRUE,,,,,,,,,,,,,,,,,,,,,,,,,,,,,,,,,
1206ny03,2023-12-06_14h08.47.717,two_step_task_legacy,2022.2.4,MacIntel,30.00120005,23,learning,0,resources/alien1_norm.png,0.3,resources/alien2_norm.png,0.7,TRUE,TRUE,3,0.319522118,red,m,0.5307,alien2,TRUE,2,0.332609983,156,1,0.7,m,0.615,0,265,265,265,1,0.3,0.7,0.4,0.6,FALSE,,,,,,,,,,,,,,,,,,,,,,,,,,,,,,,,,
1206ny03,2023-12-06_14h08.47.717,two_step_task_legacy,2022.2.4,MacIntel,30.00120005,23,learning,1,resources/alien3_norm.png,0.4,resources/alien4_norm.png,0.6,TRUE,TRUE,2,0.909855833,purple,m,0.5229,alien4,TRUE,2,0.334034432,157,1,0.6,m,0.658,0,266,266,266,1,0.3,0.7,0.4,0.6,FALSE,,,,,,,,,,,,,,,,,,,,,,,,,,,,,,,,,
1206ny03,2023-12-06_14h08.47.717,two_step_task_legacy,2022.2.4,MacIntel,30.00120005,23,learning,0,resources/alien2_norm.png,0.7,resources/alien1_norm.png,0.3,TRUE,TRUE,3,0.639884725,red,m,0.5025,alien2,TRUE,3,0.779449844,157,0,0.7,x,0.8962,0,267,267,267,1,0.3,0.7,0.4,0.6,TRUE,,,,,,,,,,,,,,,,,,,,,,,,,,,,,,,,,
1206ny03,2023-12-06_14h08.47.717,two_step_task_legacy,2022.2.4,MacIntel,30.00120005,23,learning,0,resources/alien2_norm.png,0.7,resources/alien1_norm.png,0.3,TRUE,TRUE,3,0.618052957,red,m,0.4996,alien2,TRUE,2,0.219336078,158,1,0.7,x,0.5529,0,268,268,268,1,0.3,0.7,0.4,0.6,TRUE,,,,,,,,,,,,,,,,,,,,,,,,,,,,,,,,,
1206ny03,2023-12-06_14h08.47.717,two_step_task_legacy,2022.2.4,MacIntel,30.00120005,23,learning,1,resources/alien4_norm.png,0.6,resources/alien3_norm.png,0.4,TRUE,TRUE,2,0.918571866,purple,m,0.7668,alien4,TRUE,3,0.632987075,158,0,0.6,x,1.8823,0,269,269,269,1,0.3,0.7,0.4,0.6,TRUE,,,,,,,,,,,,,,,,,,,,,,,,,,,,,,,,,
1206ny03,2023-12-06_14h08.47.717,two_step_task_legacy,2022.2.4,MacIntel,30.00120005,23,learning,0,resources/alien4_norm.png,0.6,resources/alien3_norm.png,0.4,TRUE,TRUE,2,0.137068798,purple,x,0.0662,alien4,TRUE,2,0.332754592,159,1,0.6,x,0.8167,0,270,270,270,1,0.3,0.7,0.4,0.6,TRUE,,,,,,,,,,,,,,,,,,,,,,,,,,,,,,,,,
1206ny03,2023-12-06_14h08.47.717,two_step_task_legacy,2022.2.4,MacIntel,30.00120005,23,learning,0,resources/alien2_norm.png,0.7,resources/alien1_norm.png,0.3,TRUE,TRUE,3,0.00988918,red,m,1.0343,alien2,TRUE,2,0.07660106,160,1,0.7,x,0.5904,0,271,271,271,1,0.3,0.7,0.4,0.6,TRUE,,,,,,,,,,,,,,,,,,,,,,,,,,,,,,,,,
1206ny03,2023-12-06_14h08.47.717,two_step_task_legacy,2022.2.4,MacIntel,30.00120005,23,learning,1,resources/alien4_norm.png,0.6,resources/alien3_norm.png,0.4,TRUE,TRUE,2,0.814244241,purple,m,0.5731,alien4,TRUE,3,0.814475903,160,0,0.6,x,0.7105,0,272,272,272,1,0.3,0.7,0.4,0.6,TRUE,,,,,,,,,,,,,,,,,,,,,,,,,,,,,,,,,
1206ny03,2023-12-06_14h08.47.717,two_step_task_legacy,2022.2.4,MacIntel,30.00120005,23,learning,1,resources/alien4_norm.png,0.6,resources/alien3_norm.png,0.4,TRUE,TRUE,2,0.883570419,purple,m,0.5156,alien4,TRUE,3,0.846312751,160,0,0.6,x,0.6312,0,273,273,273,1,0.3,0.7,0.4,0.6,TRUE,,,,,,,,,,,,,,,,,,,,,,,,,,,,,,,,,
1206ny03,2023-12-06_14h08.47.717,two_step_task_legacy,2022.2.4,MacIntel,30.00120005,23,learning,0,resources/alien1_norm.png,0.3,resources/alien2_norm.png,0.7,TRUE,TRUE,3,0.595161752,red,m,0.4661,alien2,TRUE,2,0.554741598,161,1,0.7,m,0.6268,0,274,274,274,1,0.3,0.7,0.4,0.6,FALSE,,,,,,,,,,,,,,,,,,,,,,,,,,,,,,,,,
1206ny03,2023-12-06_14h08.47.717,two_step_task_legacy,2022.2.4,MacIntel,30.00120005,23,learning,0,resources/alien2_norm.png,0.7,resources/alien1_norm.png,0.3,TRUE,TRUE,3,0.461252019,red,m,0.5486,alien2,TRUE,3,0.855345623,161,0,0.7,x,0.8408,0,275,275,275,1,0.3,0.7,0.4,0.6,TRUE,,,,,,,,,,,,,,,,,,,,,,,,,,,,,,,,,
1206ny03,2023-12-06_14h08.47.717,two_step_task_legacy,2022.2.4,MacIntel,30.00120005,23,learning,0,resources/alien1_norm.png,0.3,resources/alien2_norm.png,0.7,TRUE,TRUE,3,0.419993732,red,m,0.4998,alien2,TRUE,2,0.443090171,162,1,0.7,m,0.6716,0,276,276,276,1,0.3,0.7,0.4,0.6,FALSE,,,,,,,,,,,,,,,,,,,,,,,,,,,,,,,,,
1206ny03,2023-12-06_14h08.47.717,two_step_task_legacy,2022.2.4,MacIntel,30.00120005,23,learning,0,resources/alien2_norm.png,0.7,resources/alien1_norm.png,0.3,TRUE,TRUE,3,0.220721738,red,m,0.2011,alien2,TRUE,2,0.106959143,163,1,0.7,x,1.2335,0,277,277,277,1,0.3,0.7,0.4,0.6,TRUE,,,,,,,,,,,,,,,,,,,,,,,,,,,,,,,,,
1206ny03,2023-12-06_14h08.47.717,two_step_task_legacy,2022.2.4,MacIntel,30.00120005,23,learning,1,resources/alien3_norm.png,0.4,resources/alien4_norm.png,0.6,TRUE,TRUE,2,0.834785815,purple,m,1.3498,alien4,TRUE,3,0.894934675,163,0,0.6,m,0.5096,0,278,278,278,1,0.3,0.7,0.4,0.6,FALSE,,,,,,,,,,,,,,,,,,,,,,,,,,,,,,,,,
1206ny03,2023-12-06_14h08.47.717,two_step_task_legacy,2022.2.4,MacIntel,30.00120005,23,learning,0,resources/alien3_norm.png,0.4,resources/alien4_norm.png,0.6,TRUE,TRUE,2,0.135160931,purple,x,0.4857,alien3,TRUE,2,0.08468745,164,1,0.4,x,0.1822,0,279,279,279,1,0.3,0.7,0.4,0.6,FALSE,,,,,,,,,,,,,,,,,,,,,,,,,,,,,,,,,
1206ny03,2023-12-06_14h08.47.717,two_step_task_legacy,2022.2.4,MacIntel,30.00120005,23,learning,0,resources/alien4_norm.png,0.6,resources/alien3_norm.png,0.4,TRUE,TRUE,2,0.12553836,purple,x,0.5508,alien4,TRUE,2,0.599231324,165,1,0.6,x,0.5993,0,280,280,280,1,0.3,0.7,0.4,0.6,TRUE,,,,,,,,,,,,,,,,,,,,,,,,,,,,,,,,,
1206ny03,2023-12-06_14h08.47.717,two_step_task_legacy,2022.2.4,MacIntel,30.00120005,23,learning,1,resources/alien2_norm.png,0.7,resources/alien1_norm.png,0.3,TRUE,TRUE,3,0.709326154,red,x,0.4514,alien2,TRUE,2,0.539324957,166,1,0.7,x,0.4616,0,281,281,281,1,0.3,0.7,0.4,0.6,TRUE,,,,,,,,,,,,,,,,,,,,,,,,,,,,,,,,,
1206ny03,2023-12-06_14h08.47.717,two_step_task_legacy,2022.2.4,MacIntel,30.00120005,23,learning,0,resources/alien3_norm.png,0.4,resources/alien4_norm.png,0.6,TRUE,TRUE,2,0.126536384,purple,x,0.421,alien4,TRUE,3,0.992844621,166,0,0.6,m,0.5349,0,282,282,282,1,0.3,0.7,0.4,0.6,FALSE,,,,,,,,,,,,,,,,,,,,,,,,,,,,,,,,,
1206ny03,2023-12-06_14h08.47.717,two_step_task_legacy,2022.2.4,MacIntel,30.00120005,23,learning,1,resources/alien2_norm.png,0.7,resources/alien1_norm.png,0.3,TRUE,TRUE,3,0.75302042,red,x,0.4843,alien2,TRUE,2,0.022049693,167,1,0.7,x,0.4157,0,283,283,283,1,0.3,0.7,0.4,0.6,TRUE,,,,,,,,,,,,,,,,,,,,,,,,,,,,,,,,,
1206ny03,2023-12-06_14h08.47.717,two_step_task_legacy,2022.2.4,MacIntel,30.00120005,23,learning,0,resources/alien4_norm.png,0.6,resources/alien3_norm.png,0.4,TRUE,TRUE,2,0.128754603,purple,x,0.4489,alien4,TRUE,3,0.612841931,167,0,0.6,x,0.4773,0,284,284,284,1,0.3,0.7,0.4,0.6,TRUE,,,,,,,,,,,,,,,,,,,,,,,,,,,,,,,,,
1206ny03,2023-12-06_14h08.47.717,two_step_task_legacy,2022.2.4,MacIntel,30.00120005,23,learning,1,resources/alien1_norm.png,0.3,resources/alien2_norm.png,0.7,TRUE,TRUE,3,0.712136273,red,x,0.6875,alien2,TRUE,3,0.754493108,167,0,0.7,m,0.5287,0,285,285,285,1,0.3,0.7,0.4,0.6,FALSE,,,,,,,,,,,,,,,,,,,,,,,,,,,,,,,,,
1206ny03,2023-12-06_14h08.47.717,two_step_task_legacy,2022.2.4,MacIntel,30.00120005,23,learning,0,resources/alien4_norm.png,0.6,resources/alien3_norm.png,0.4,TRUE,TRUE,2,0.3612776,purple,x,0.4689,alien4,TRUE,2,0.51618911,168,1,0.6,x,0.394,0,286,286,286,1,0.3,0.7,0.4,0.6,TRUE,,,,,,,,,,,,,,,,,,,,,,,,,,,,,,,,,
