participant,date,expName,psychopyVersion,OS,frameRate,payoff_list,phase,rare_transition,left_alien,left_probabilty,right_alien,right_probabilty,select_sp,show_alien,rocket_trans,rand_sp,planet,key_resp_exp.keys,key_resp_exp.rt,chosen_alien,select_alien,transmoney,rand_money,totalgold,trialgain,probs,key_resp_exp_alien.keys,key_resp_exp_alien.rt,loop_exp.thisRepN,loop_exp.thisTrialN,loop_exp.thisN,loop_exp.thisIndex,loop_exp.ran,p1,p2,p3,p4,flip_sides,static_probability_left,static_probability_right,key_resp_probe.keys,key_resp_probe.rt,accuracy,probe_loop.thisRepN,probe_loop.thisTrialN,probe_loop.thisN,probe_loop.thisIndex,probe_loop.ran,probe_la,probe_ra,key_resp.keys,key_resp.rt,slider.response,slider.rt,post_loop.thisRepN,post_loop.thisTrialN,post_loop.thisN,post_loop.thisIndex,post_loop.ran,text_up,pos_text_up,text_down,pos_img_left_up,left_up_img,right_up_img,left_down_img_1,left_down_img_2,right_down_img_1,right_down_img_2,size,show_slider
1206ny02,2023-12-06_10h32.12.920,two_step_task_legacy,2022.2.4,Win32,59.86231667,,,,,,,,,,,,,,,,,,,,,,,,,,,,,,,,,,,,,,,,,,,,,,,,,,,,,,,,,,,,,,,,,,
1206ny02,2023-12-06_10h32.12.920,two_step_task_legacy,2022.2.4,Win32,59.86231667,,,,,,,,,,,,,,,,,,,,,,,,,,,,,,,,,,,,,,,,,,,,,,,,,,,,,,,,,,,,,,,,,,
1206ny02,2023-12-06_10h32.12.920,two_step_task_legacy,2022.2.4,Win32,59.86231667,,,,,,,,,,,,,,,,,,,,,,,,,,,,,,,,,,,,,,,,,,,,,,,,,,,,,,,,,,,,,,,,,,
1206ny02,2023-12-06_10h32.12.920,two_step_task_legacy,2022.2.4,Win32,59.86231667,,,,,,,,,,,,,,,,,,,,,,,,,,,,,,,,,,,,,,,,,,,,,,,,,,,,,,,,,,,,,,,,,,
1206ny02,2023-12-06_10h32.12.920,two_step_task_legacy,2022.2.4,Win32,59.86231667,,,,,,,,,,,,,,,,,,,,,,,,,,,,,,,,,,,,,,,,,,,,,,,,,,,,,,,,,,,,,,,,,,
1206ny02,2023-12-06_10h32.12.920,two_step_task_legacy,2022.2.4,Win32,59.86231667,,,,,,,,,,,,,,,,,,,,,,,,,,,,,,,,,,,,,,,,,,,,,,,,,,,,,,,,,,,,,,,,,,
1206ny02,2023-12-06_10h32.12.920,two_step_task_legacy,2022.2.4,Win32,59.86231667,,,,,,,,,,,,,,,,,,,,,,,,,,,,,,,,,,,,,,,,,,,,,,,,,,,,,,,,,,,,,,,,,,
1206ny02,2023-12-06_10h32.12.920,two_step_task_legacy,2022.2.4,Win32,59.86231667,,,,,,,,,,,,,,,,,,,,,,,,,,,,,,,,,,,,,,,,,,,,,,,,,,,,,,,,,,,,,,,,,,
1206ny02,2023-12-06_10h32.12.920,two_step_task_legacy,2022.2.4,Win32,59.86231667,,,,,,,,,,,,,,,,,,,,,,,,,,,,,,,,,,,,,,,,,,,,,,,,,,,,,,,,,,,,,,,,,,
1206ny02,2023-12-06_10h32.12.920,two_step_task_legacy,2022.2.4,Win32,59.86231667,,,,,,,,,,,,,,,,,,,,,,,,,,,,,,,,,,,,,,,,,,,,,,,,,,,,,,,,,,,,,,,,,,
1206ny02,2023-12-06_10h32.12.920,two_step_task_legacy,2022.2.4,Win32,59.86231667,,,,,,,,,,,,,,,,,,,,,,,,,,,,,,,,,,,,,,,,,,,,,,,,,,,,,,,,,,,,,,,,,,
1206ny02,2023-12-06_10h32.12.920,two_step_task_legacy,2022.2.4,Win32,59.86231667,11,learning,0,resources/alien3_norm.png,0.463481854,resources/alien4_norm.png,0.281474585,TRUE,TRUE,2,0.178792627,purple,x,0.8215,alien3,TRUE,2,0.04741655,1,1,0.463481854,x,0.6596,0,0,0,0,1,0.735004267,0.405760115,0.463481854,0.281474585,FALSE,,,,,,,,,,,,,,,,,,,,,,,,,,,,,,,,,
1206ny02,2023-12-06_10h32.12.920,two_step_task_legacy,2022.2.4,Win32,59.86231667,11,learning,0,resources/alien2_norm.png,0.409498917,resources/alien1_norm.png,0.726648013,TRUE,TRUE,3,0.519110756,red,m,0.6842,alien2,TRUE,2,0.285442443,2,1,0.409498917,x,0.7425,0,1,1,1,1,0.726648013,0.409498917,0.470939609,0.277760257,TRUE,,,,,,,,,,,,,,,,,,,,,,,,,,,,,,,,,
1206ny02,2023-12-06_10h32.12.920,two_step_task_legacy,2022.2.4,Win32,59.86231667,11,learning,0,resources/alien3_norm.png,0.495843388,resources/alien4_norm.png,0.270517849,TRUE,TRUE,2,0.054867359,purple,x,0.6516,alien3,TRUE,2,0.244329867,3,1,0.495843388,x,0.443,0,2,2,2,1,0.735612575,0.398886568,0.495843388,0.270517849,FALSE,,,,,,,,,,,,,,,,,,,,,,,,,,,,,,,,,
1206ny02,2023-12-06_10h32.12.920,two_step_task_legacy,2022.2.4,Win32,59.86231667,11,learning,1,resources/alien2_norm.png,0.379898073,resources/alien1_norm.png,0.739079361,TRUE,TRUE,3,0.724340861,red,x,0.5349,alien2,TRUE,3,0.69095781,3,0,0.379898073,x,1.6683,0,3,3,3,1,0.739079361,0.379898073,0.493294126,0.274263712,TRUE,,,,,,,,,,,,,,,,,,,,,,,,,,,,,,,,,
1206ny02,2023-12-06_10h32.12.920,two_step_task_legacy,2022.2.4,Win32,59.86231667,11,learning,1,resources/alien3_norm.png,0.530188502,resources/alien4_norm.png,0.288243949,TRUE,TRUE,2,0.794746847,purple,m,0.4838,alien3,TRUE,2,0.424954664,4,1,0.530188502,x,0.8015,0,4,4,4,1,0.732547828,0.358463113,0.530188502,0.288243949,FALSE,,,,,,,,,,,,,,,,,,,,,,,,,,,,,,,,,
1206ny02,2023-12-06_10h32.12.920,two_step_task_legacy,2022.2.4,Win32,59.86231667,11,learning,0,resources/alien3_norm.png,0.492907968,resources/alien4_norm.png,0.316009642,TRUE,TRUE,2,0.105227201,purple,x,0.8011,alien3,TRUE,3,0.740929341,4,0,0.492907968,x,0.4673,0,5,5,5,1,0.74071327,0.38268738,0.492907968,0.316009642,FALSE,,,,,,,,,,,,,,,,,,,,,,,,,,,,,,,,,
1206ny02,2023-12-06_10h32.12.920,two_step_task_legacy,2022.2.4,Win32,59.86231667,11,learning,0,resources/alien2_norm.png,0.410091306,resources/alien1_norm.png,0.741200658,TRUE,TRUE,3,0.29161059,red,m,0.4026,alien2,TRUE,2,0.055483219,5,1,0.410091306,x,0.8008,0,6,6,6,1,0.741200658,0.410091306,0.454369038,0.29370718,TRUE,,,,,,,,,,,,,,,,,,,,,,,,,,,,,,,,,
1206ny02,2023-12-06_10h32.12.920,two_step_task_legacy,2022.2.4,Win32,59.86231667,11,learning,0,resources/alien4_norm.png,0.322663367,resources/alien3_norm.png,0.436334861,TRUE,TRUE,2,0.039722479,purple,x,0.3191,alien3,TRUE,3,0.568733523,5,0,0.436334861,m,0.6205,0,7,7,7,1,0.741158735,0.397919021,0.436334861,0.322663367,TRUE,,,,,,,,,,,,,,,,,,,,,,,,,,,,,,,,,
1206ny02,2023-12-06_10h32.12.920,two_step_task_legacy,2022.2.4,Win32,59.86231667,11,learning,1,resources/alien4_norm.png,0.321962032,resources/alien3_norm.png,0.426368741,TRUE,TRUE,2,0.799359481,purple,m,0.3205,alien4,TRUE,3,0.824418134,5,0,0.321962032,x,1.3854,0,8,8,8,1,0.722024971,0.387561009,0.426368741,0.321962032,TRUE,,,,,,,,,,,,,,,,,,,,,,,,,,,,,,,,,
1206ny02,2023-12-06_10h32.12.920,two_step_task_legacy,2022.2.4,Win32,59.86231667,11,learning,0,resources/alien4_norm.png,0.30699842,resources/alien3_norm.png,0.452344181,TRUE,TRUE,2,0.385395585,purple,x,1.4019,alien4,TRUE,3,0.497467972,5,0,0.30699842,x,1.0178,0,9,9,9,1,0.730172366,0.407348494,0.452344181,0.30699842,TRUE,,,,,,,,,,,,,,,,,,,,,,,,,,,,,,,,,
1206ny02,2023-12-06_10h32.12.920,two_step_task_legacy,2022.2.4,Win32,59.86231667,11,learning,0,resources/alien2_norm.png,0.402942073,resources/alien1_norm.png,0.747999597,TRUE,TRUE,3,0.100332381,red,m,0.5997,alien2,TRUE,3,0.619711753,5,0,0.402942073,x,0.7177,0,10,10,10,1,0.747999597,0.402942073,0.428097866,0.253366353,TRUE,,,,,,,,,,,,,,,,,,,,,,,,,,,,,,,,,
1206ny02,2023-12-06_10h32.12.920,two_step_task_legacy,2022.2.4,Win32,59.86231667,11,learning,0,resources/alien2_norm.png,0.406383509,resources/alien1_norm.png,0.721501316,TRUE,TRUE,3,0.436263074,red,m,0.469,alien1,TRUE,3,0.89610816,5,0,0.721501316,m,0.6342,0,11,11,11,1,0.721501316,0.406383509,0.407875273,0.285708472,TRUE,,,,,,,,,,,,,,,,,,,,,,,,,,,,,,,,,
1206ny02,2023-12-06_10h32.12.920,two_step_task_legacy,2022.2.4,Win32,59.86231667,11,learning,0,resources/alien1_norm.png,0.691834539,resources/alien2_norm.png,0.413377317,TRUE,TRUE,3,0.321055513,red,m,0.4508,alien1,TRUE,3,0.694733384,5,0,0.691834539,x,1.0517,0,12,12,12,1,0.691834539,0.413377317,0.409844896,0.300834026,FALSE,,,,,,,,,,,,,,,,,,,,,,,,,,,,,,,,,
1206ny02,2023-12-06_10h32.12.920,two_step_task_legacy,2022.2.4,Win32,59.86231667,11,learning,0,resources/alien3_norm.png,0.387071895,resources/alien4_norm.png,0.332412063,TRUE,TRUE,2,0.194296458,purple,x,0.2687,alien4,TRUE,3,0.926333836,5,0,0.332412063,m,0.6862,0,13,13,13,1,0.733698146,0.41342159,0.387071895,0.332412063,FALSE,,,,,,,,,,,,,,,,,,,,,,,,,,,,,,,,,
1206ny02,2023-12-06_10h32.12.920,two_step_task_legacy,2022.2.4,Win32,59.86231667,11,learning,0,resources/alien4_norm.png,0.292973976,resources/alien3_norm.png,0.328671282,TRUE,TRUE,2,0.297321506,purple,x,0.3188,alien3,TRUE,2,0.095198718,6,1,0.328671282,m,0.6179,0,14,14,14,1,0.698813213,0.403346101,0.328671282,0.292973976,TRUE,,,,,,,,,,,,,,,,,,,,,,,,,,,,,,,,,
1206ny02,2023-12-06_10h32.12.920,two_step_task_legacy,2022.2.4,Win32,59.86231667,11,learning,1,resources/alien1_norm.png,0.673597567,resources/alien2_norm.png,0.40250225,TRUE,TRUE,3,0.929355469,red,x,0.3173,alien2,TRUE,3,0.772235416,6,0,0.40250225,m,1.2013,0,15,15,15,1,0.673597567,0.40250225,0.342113757,0.33043911,FALSE,,,,,,,,,,,,,,,,,,,,,,,,,,,,,,,,,
1206ny02,2023-12-06_10h32.12.920,two_step_task_legacy,2022.2.4,Win32,59.86231667,11,learning,0,resources/alien4_norm.png,0.338837976,resources/alien3_norm.png,0.346400472,TRUE,TRUE,2,0.116865064,purple,x,0.2698,alien3,TRUE,3,0.90170434,6,0,0.346400472,m,0.7345,0,16,16,16,1,0.680184118,0.424573709,0.346400472,0.338837976,TRUE,,,,,,,,,,,,,,,,,,,,,,,,,,,,,,,,,
1206ny02,2023-12-06_10h32.12.920,two_step_task_legacy,2022.2.4,Win32,59.86231667,11,learning,0,resources/alien1_norm.png,0.695581347,resources/alien2_norm.png,0.425223256,TRUE,TRUE,3,0.039799326,red,m,0.4191,alien1,TRUE,2,0.318591444,7,1,0.695581347,x,0.966,0,17,17,17,1,0.695581347,0.425223256,0.33217653,0.308440183,FALSE,,,,,,,,,,,,,,,,,,,,,,,,,,,,,,,,,
1206ny02,2023-12-06_10h32.12.920,two_step_task_legacy,2022.2.4,Win32,59.86231667,11,learning,0,resources/alien1_norm.png,0.665279829,resources/alien2_norm.png,0.395443845,TRUE,TRUE,3,0.649986505,red,m,0.3847,alien1,TRUE,3,0.796530394,7,0,0.665279829,x,0.3539,0,18,18,18,1,0.665279829,0.395443845,0.385355991,0.307336406,FALSE,,,,,,,,,,,,,,,,,,,,,,,,,,,,,,,,,
1206ny02,2023-12-06_10h32.12.920,two_step_task_legacy,2022.2.4,Win32,59.86231667,11,learning,0,resources/alien1_norm.png,0.661411279,resources/alien2_norm.png,0.435220861,TRUE,TRUE,3,0.327809959,red,m,0.3202,alien1,TRUE,2,0.007327151,8,1,0.661411279,x,1.2518,0,19,19,19,1,0.661411279,0.435220861,0.401923143,0.290351741,FALSE,,,,,,,,,,,,,,,,,,,,,,,,,,,,,,,,,
1206ny02,2023-12-06_10h32.12.920,two_step_task_legacy,2022.2.4,Win32,59.86231667,11,learning,0,resources/alien3_norm.png,0.398249836,resources/alien4_norm.png,0.271196954,TRUE,TRUE,2,0.166402754,purple,x,0.4678,alien3,TRUE,3,0.679448906,8,0,0.398249836,x,0.5509,0,20,20,20,1,0.661949138,0.410912611,0.398249836,0.271196954,FALSE,,,,,,,,,,,,,,,,,,,,,,,,,,,,,,,,,
1206ny02,2023-12-06_10h32.12.920,two_step_task_legacy,2022.2.4,Win32,59.86231667,11,learning,1,resources/alien1_norm.png,0.654233993,resources/alien2_norm.png,0.43410913,TRUE,TRUE,3,0.976698457,red,x,0.6379,alien2,TRUE,3,0.567337129,8,0,0.43410913,m,1.0191,0,21,21,21,1,0.654233993,0.43410913,0.415225809,0.252366339,FALSE,,,,,,,,,,,,,,,,,,,,,,,,,,,,,,,,,
1206ny02,2023-12-06_10h32.12.920,two_step_task_legacy,2022.2.4,Win32,59.86231667,11,learning,1,resources/alien2_norm.png,0.388227855,resources/alien1_norm.png,0.67678513,TRUE,TRUE,3,0.730220416,red,x,0.9352,alien1,TRUE,2,0.086793571,9,1,0.67678513,m,0.8517,0,22,22,22,1,0.67678513,0.388227855,0.452186207,0.287515569,TRUE,,,,,,,,,,,,,,,,,,,,,,,,,,,,,,,,,
1206ny02,2023-12-06_10h32.12.920,two_step_task_legacy,2022.2.4,Win32,59.86231667,11,learning,0,resources/alien2_norm.png,0.389511366,resources/alien1_norm.png,0.659885743,TRUE,TRUE,3,0.433136554,red,m,0.3847,alien2,TRUE,3,0.836224041,9,0,0.389511366,x,0.7847,0,23,23,23,1,0.659885743,0.389511366,0.461093342,0.271854671,TRUE,,,,,,,,,,,,,,,,,,,,,,,,,,,,,,,,,
1206ny02,2023-12-06_10h32.12.920,two_step_task_legacy,2022.2.4,Win32,59.86231667,11,learning,0,resources/alien4_norm.png,0.265652547,resources/alien3_norm.png,0.449009712,TRUE,TRUE,2,0.448112224,purple,x,1.2356,alien3,TRUE,2,0.36231434,10,1,0.449009712,m,0.936,0,24,24,24,1,0.666068018,0.398800031,0.449009712,0.265652547,TRUE,,,,,,,,,,,,,,,,,,,,,,,,,,,,,,,,,
1206ny02,2023-12-06_10h32.12.920,two_step_task_legacy,2022.2.4,Win32,59.86231667,11,learning,1,resources/alien2_norm.png,0.413573954,resources/alien1_norm.png,0.693855048,TRUE,TRUE,3,0.737574407,red,x,0.2847,alien2,TRUE,3,0.530801464,10,0,0.413573954,x,0.8846,0,25,25,25,1,0.693855048,0.413573954,0.452565344,0.25034404,TRUE,,,,,,,,,,,,,,,,,,,,,,,,,,,,,,,,,
1206ny02,2023-12-06_10h32.12.920,two_step_task_legacy,2022.2.4,Win32,59.86231667,11,learning,1,resources/alien2_norm.png,0.433242785,resources/alien1_norm.png,0.665387551,TRUE,TRUE,3,0.806215997,red,x,0.5833,alien1,TRUE,2,0.423416275,11,1,0.665387551,m,0.4513,0,26,26,26,1,0.665387551,0.433242785,0.440419535,0.257320124,TRUE,,,,,,,,,,,,,,,,,,,,,,,,,,,,,,,,,
1206ny02,2023-12-06_10h32.12.920,two_step_task_legacy,2022.2.4,Win32,59.86231667,11,learning,0,resources/alien2_norm.png,0.448773815,resources/alien1_norm.png,0.636497297,TRUE,TRUE,3,0.567502999,red,m,0.6346,alien1,TRUE,2,0.112728701,12,1,0.636497297,m,0.9535,0,27,27,27,1,0.636497297,0.448773815,0.415619749,0.254034703,TRUE,,,,,,,,,,,,,,,,,,,,,,,,,,,,,,,,,
1206ny02,2023-12-06_10h32.12.920,two_step_task_legacy,2022.2.4,Win32,59.86231667,11,learning,1,resources/alien4_norm.png,0.268687372,resources/alien3_norm.png,0.383697745,TRUE,TRUE,2,0.920726824,purple,m,0.6013,alien3,TRUE,3,0.60115724,12,0,0.383697745,m,0.7927,0,28,28,28,1,0.638994832,0.429405459,0.383697745,0.268687372,TRUE,,,,,,,,,,,,,,,,,,,,,,,,,,,,,,,,,
1206ny02,2023-12-06_10h32.12.920,two_step_task_legacy,2022.2.4,Win32,59.86231667,11,learning,1,resources/alien4_norm.png,0.269139552,resources/alien3_norm.png,0.385779103,TRUE,TRUE,2,0.939629377,purple,m,0.2345,alien4,TRUE,3,0.308012623,12,0,0.269139552,x,0.9193,0,29,29,29,1,0.578130636,0.410940076,0.385779103,0.269139552,TRUE,,,,,,,,,,,,,,,,,,,,,,,,,,,,,,,,,
1206ny02,2023-12-06_10h32.12.920,two_step_task_legacy,2022.2.4,Win32,59.86231667,11,learning,0,resources/alien2_norm.png,0.431141489,resources/alien1_norm.png,0.547015321,TRUE,TRUE,3,0.687488445,red,m,0.3202,alien1,TRUE,2,0.366013734,13,1,0.547015321,m,0.5686,0,30,30,30,1,0.547015321,0.431141489,0.457376883,0.274735338,TRUE,,,,,,,,,,,,,,,,,,,,,,,,,,,,,,,,,
1206ny02,2023-12-06_10h32.12.920,two_step_task_legacy,2022.2.4,Win32,59.86231667,11,learning,0,resources/alien2_norm.png,0.476757946,resources/alien1_norm.png,0.489685474,TRUE,TRUE,3,0.413987947,red,m,0.3034,alien1,TRUE,2,0.316215894,14,1,0.489685474,m,0.3706,0,31,31,31,1,0.489685474,0.476757946,0.460317929,0.260113935,TRUE,,,,,,,,,,,,,,,,,,,,,,,,,,,,,,,,,
1206ny02,2023-12-06_10h32.12.920,two_step_task_legacy,2022.2.4,Win32,59.86231667,11,learning,1,resources/alien4_norm.png,0.27332593,resources/alien3_norm.png,0.462294434,TRUE,TRUE,2,0.811844948,purple,m,0.2991,alien3,TRUE,3,0.899221477,14,0,0.462294434,m,1.4164,0,32,32,32,1,0.536848324,0.47271727,0.462294434,0.27332593,TRUE,,,,,,,,,,,,,,,,,,,,,,,,,,,,,,,,,
1206ny02,2023-12-06_10h32.12.920,two_step_task_legacy,2022.2.4,Win32,59.86231667,11,learning,0,resources/alien3_norm.png,0.506024589,resources/alien4_norm.png,0.282754269,TRUE,TRUE,2,0.28216903,purple,x,0.6687,alien3,TRUE,3,0.916799816,14,0,0.506024589,x,0.851,0,33,33,33,1,0.551396021,0.483591319,0.506024589,0.282754269,FALSE,,,,,,,,,,,,,,,,,,,,,,,,,,,,,,,,,
1206ny02,2023-12-06_10h32.12.920,two_step_task_legacy,2022.2.4,Win32,59.86231667,11,learning,0,resources/alien4_norm.png,0.269186602,resources/alien3_norm.png,0.457029769,TRUE,TRUE,2,0.130826654,purple,x,0.3864,alien4,TRUE,3,0.6883319,14,0,0.269186602,x,0.7515,0,34,34,34,1,0.512254452,0.470837367,0.457029769,0.269186602,TRUE,,,,,,,,,,,,,,,,,,,,,,,,,,,,,,,,,
1206ny02,2023-12-06_10h32.12.920,two_step_task_legacy,2022.2.4,Win32,59.86231667,11,learning,0,resources/alien3_norm.png,0.447420114,resources/alien4_norm.png,0.265710056,TRUE,TRUE,2,0.014435956,purple,x,0.4693,alien3,TRUE,3,0.990830577,14,0,0.447420114,x,0.4348,0,35,35,35,1,0.491662308,0.465775001,0.447420114,0.265710056,FALSE,,,,,,,,,,,,,,,,,,,,,,,,,,,,,,,,,
1206ny02,2023-12-06_10h32.12.920,two_step_task_legacy,2022.2.4,Win32,59.86231667,11,learning,0,resources/alien4_norm.png,0.25827737,resources/alien3_norm.png,0.428082592,TRUE,TRUE,2,0.460222667,purple,x,0.7184,alien4,TRUE,2,0.078845693,15,1,0.25827737,x,0.8685,0,36,36,36,1,0.493384941,0.411646758,0.428082592,0.25827737,TRUE,,,,,,,,,,,,,,,,,,,,,,,,,,,,,,,,,
1206ny02,2023-12-06_10h32.12.920,two_step_task_legacy,2022.2.4,Win32,59.86231667,11,learning,0,resources/alien4_norm.png,0.27590428,resources/alien3_norm.png,0.373204395,TRUE,TRUE,2,0.607359764,purple,x,0.6014,alien4,TRUE,2,0.062327802,16,1,0.27590428,x,0.9201,0,37,37,37,1,0.493769778,0.429699634,0.373204395,0.27590428,TRUE,,,,,,,,,,,,,,,,,,,,,,,,,,,,,,,,,
1206ny02,2023-12-06_10h32.12.920,two_step_task_legacy,2022.2.4,Win32,59.86231667,11,learning,0,resources/alien4_norm.png,0.280094663,resources/alien3_norm.png,0.347691188,TRUE,TRUE,2,0.044716671,purple,x,0.5344,alien4,TRUE,3,0.876652586,16,0,0.280094663,x,0.6019,0,38,38,38,1,0.466597382,0.413411606,0.347691188,0.280094663,TRUE,,,,,,,,,,,,,,,,,,,,,,,,,,,,,,,,,
1206ny02,2023-12-06_10h32.12.920,two_step_task_legacy,2022.2.4,Win32,59.86231667,11,learning,0,resources/alien1_norm.png,0.505923327,resources/alien2_norm.png,0.411869078,TRUE,TRUE,3,0.649624145,red,m,1.0367,alien1,TRUE,2,0.291680103,17,1,0.505923327,x,1.001,0,39,39,39,1,0.505923327,0.411869078,0.322095757,0.339573972,FALSE,,,,,,,,,,,,,,,,,,,,,,,,,,,,,,,,,
1206ny02,2023-12-06_10h32.12.920,two_step_task_legacy,2022.2.4,Win32,59.86231667,11,learning,1,resources/alien4_norm.png,0.358756435,resources/alien3_norm.png,0.322962358,TRUE,TRUE,2,0.784776704,purple,m,0.2723,alien4,TRUE,3,0.889917419,17,0,0.358756435,x,0.467,0,40,40,40,1,0.516666368,0.417303574,0.322962358,0.358756435,TRUE,,,,,,,,,,,,,,,,,,,,,,,,,,,,,,,,,
1206ny02,2023-12-06_10h32.12.920,two_step_task_legacy,2022.2.4,Win32,59.86231667,11,learning,0,resources/alien2_norm.png,0.444104911,resources/alien1_norm.png,0.550750768,TRUE,TRUE,3,0.209933772,red,m,0.3855,alien1,TRUE,2,0.412840217,18,1,0.550750768,m,0.6006,0,41,41,41,1,0.550750768,0.444104911,0.294911851,0.357938031,TRUE,,,,,,,,,,,,,,,,,,,,,,,,,,,,,,,,,
1206ny02,2023-12-06_10h32.12.920,two_step_task_legacy,2022.2.4,Win32,59.86231667,11,learning,0,resources/alien2_norm.png,0.485191645,resources/alien1_norm.png,0.525571539,TRUE,TRUE,3,0.456449528,red,m,0.466,alien1,TRUE,2,0.020985615,19,1,0.525571539,m,0.3344,0,42,42,42,1,0.525571539,0.485191645,0.308104121,0.339040206,TRUE,,,,,,,,,,,,,,,,,,,,,,,,,,,,,,,,,
1206ny02,2023-12-06_10h32.12.920,two_step_task_legacy,2022.2.4,Win32,59.86231667,11,learning,0,resources/alien2_norm.png,0.481454084,resources/alien1_norm.png,0.50426409,TRUE,TRUE,3,0.02234667,red,m,0.2847,alien1,TRUE,3,0.843265157,19,0,0.50426409,m,0.3505,0,43,43,43,1,0.50426409,0.481454084,0.326958644,0.333505879,TRUE,,,,,,,,,,,,,,,,,,,,,,,,,,,,,,,,,
1206ny02,2023-12-06_10h32.12.920,two_step_task_legacy,2022.2.4,Win32,59.86231667,11,learning,0,resources/alien3_norm.png,0.356507974,resources/alien4_norm.png,0.323735934,TRUE,TRUE,2,0.236582033,purple,x,0.4842,alien3,TRUE,3,0.930577281,19,0,0.356507974,x,0.4338,0,44,44,44,1,0.481265357,0.499315814,0.356507974,0.323735934,FALSE,,,,,,,,,,,,,,,,,,,,,,,,,,,,,,,,,
1206ny02,2023-12-06_10h32.12.920,two_step_task_legacy,2022.2.4,Win32,59.86231667,11,learning,0,resources/alien1_norm.png,0.522309201,resources/alien2_norm.png,0.536711439,TRUE,TRUE,3,0.563471825,red,m,0.4508,alien2,TRUE,2,0.438481695,20,1,0.536711439,m,0.701,0,45,45,45,1,0.522309201,0.536711439,0.357876875,0.290739862,FALSE,,,,,,,,,,,,,,,,,,,,,,,,,,,,,,,,,
1206ny02,2023-12-06_10h32.12.920,two_step_task_legacy,2022.2.4,Win32,59.86231667,11,learning,0,resources/alien1_norm.png,0.496462145,resources/alien2_norm.png,0.50305264,TRUE,TRUE,3,0.341183748,red,m,0.2678,alien2,TRUE,3,0.937196468,20,0,0.50305264,m,0.4507,0,46,46,46,1,0.496462145,0.50305264,0.360329221,0.278991374,FALSE,,,,,,,,,,,,,,,,,,,,,,,,,,,,,,,,,
1206ny02,2023-12-06_10h32.12.920,two_step_task_legacy,2022.2.4,Win32,59.86231667,11,learning,0,resources/alien2_norm.png,0.485086755,resources/alien1_norm.png,0.493644531,TRUE,TRUE,3,0.168346116,red,m,0.6532,alien1,TRUE,3,0.713802749,20,0,0.493644531,m,0.7668,0,47,47,47,1,0.493644531,0.485086755,0.343718868,0.305174823,TRUE,,,,,,,,,,,,,,,,,,,,,,,,,,,,,,,,,
1206ny02,2023-12-06_10h32.12.920,two_step_task_legacy,2022.2.4,Win32,59.86231667,11,learning,0,resources/alien2_norm.png,0.483205309,resources/alien1_norm.png,0.491945355,TRUE,TRUE,3,0.374361844,red,m,0.493,alien2,TRUE,3,0.705222174,20,0,0.483205309,x,0.6017,0,48,48,48,1,0.491945355,0.483205309,0.345401109,0.31787677,TRUE,,,,,,,,,,,,,,,,,,,,,,,,,,,,,,,,,
1206ny02,2023-12-06_10h32.12.920,two_step_task_legacy,2022.2.4,Win32,59.86231667,11,learning,1,resources/alien2_norm.png,0.502991622,resources/alien1_norm.png,0.517740593,TRUE,TRUE,3,0.923158172,red,x,0.4346,alien2,TRUE,2,0.256155026,21,1,0.502991622,x,0.6688,0,49,49,49,1,0.517740593,0.502991622,0.373728587,0.277022005,TRUE,,,,,,,,,,,,,,,,,,,,,,,,,,,,,,,,,
1206ny02,2023-12-06_10h32.12.920,two_step_task_legacy,2022.2.4,Win32,59.86231667,11,learning,0,resources/alien3_norm.png,0.348397501,resources/alien4_norm.png,0.270042045,TRUE,TRUE,2,0.089285222,purple,x,0.3845,alien4,TRUE,3,0.405720972,21,0,0.270042045,m,1.001,0,50,50,50,1,0.520150615,0.50684998,0.348397501,0.270042045,FALSE,,,,,,,,,,,,,,,,,,,,,,,,,,,,,,,,,
1206ny02,2023-12-06_10h32.12.920,two_step_task_legacy,2022.2.4,Win32,59.86231667,11,learning,1,resources/alien2_norm.png,0.526013812,resources/alien1_norm.png,0.5351946,TRUE,TRUE,3,0.825884895,red,x,0.3344,alien2,TRUE,2,0.022961222,22,1,0.526013812,x,0.9178,0,51,51,51,1,0.5351946,0.526013812,0.402425342,0.255023094,TRUE,,,,,,,,,,,,,,,,,,,,,,,,,,,,,,,,,
1206ny02,2023-12-06_10h32.12.920,two_step_task_legacy,2022.2.4,Win32,59.86231667,11,learning,1,resources/alien2_norm.png,0.531253596,resources/alien1_norm.png,0.566527291,TRUE,TRUE,3,0.725835614,red,x,0.6019,alien2,TRUE,2,0.249398889,23,1,0.531253596,x,0.7179,0,52,52,52,1,0.566527291,0.531253596,0.405415746,0.287660245,TRUE,,,,,,,,,,,,,,,,,,,,,,,,,,,,,,,,,
1206ny02,2023-12-06_10h32.12.920,two_step_task_legacy,2022.2.4,Win32,59.86231667,11,learning,0,resources/alien3_norm.png,0.38709589,resources/alien4_norm.png,0.304407373,TRUE,TRUE,2,0.615836872,purple,x,0.3847,alien3,TRUE,2,0.275546777,24,1,0.38709589,x,1.0001,0,53,53,53,1,0.573303228,0.504003796,0.38709589,0.304407373,FALSE,,,,,,,,,,,,,,,,,,,,,,,,,,,,,,,,,
1206ny02,2023-12-06_10h32.12.920,two_step_task_legacy,2022.2.4,Win32,59.86231667,11,learning,1,resources/alien2_norm.png,0.525650001,resources/alien1_norm.png,0.600344675,TRUE,TRUE,3,0.91091957,red,x,0.2345,alien2,TRUE,2,0.404370878,25,1,0.525650001,x,0.7855,0,54,54,54,1,0.600344675,0.525650001,0.383678743,0.316597135,TRUE,,,,,,,,,,,,,,,,,,,,,,,,,,,,,,,,,
1206ny02,2023-12-06_10h32.12.920,two_step_task_legacy,2022.2.4,Win32,59.86231667,11,learning,0,resources/alien4_norm.png,0.257280936,resources/alien3_norm.png,0.36987251,TRUE,TRUE,2,0.448153613,purple,x,0.2179,alien3,TRUE,2,0.257969182,26,1,0.36987251,m,0.7177,0,55,55,55,1,0.595996806,0.507899843,0.36987251,0.257280936,TRUE,,,,,,,,,,,,,,,,,,,,,,,,,,,,,,,,,
1206ny02,2023-12-06_10h32.12.920,two_step_task_legacy,2022.2.4,Win32,59.86231667,11,learning,0,resources/alien2_norm.png,0.449466026,resources/alien1_norm.png,0.582664231,TRUE,TRUE,3,0.656832528,red,m,0.4661,alien2,TRUE,2,0.209992871,27,1,0.449466026,x,0.6005,0,56,56,56,1,0.582664231,0.449466026,0.407284747,0.271589073,TRUE,,,,,,,,,,,,,,,,,,,,,,,,,,,,,,,,,
1206ny02,2023-12-06_10h32.12.920,two_step_task_legacy,2022.2.4,Win32,59.86231667,11,learning,0,resources/alien1_norm.png,0.538753325,resources/alien2_norm.png,0.438069661,TRUE,TRUE,3,0.438394657,red,m,0.2035,alien2,TRUE,3,0.772338808,27,0,0.438069661,m,0.5178,0,57,57,57,1,0.538753325,0.438069661,0.421476831,0.259809431,FALSE,,,,,,,,,,,,,,,,,,,,,,,,,,,,,,,,,
1206ny02,2023-12-06_10h32.12.920,two_step_task_legacy,2022.2.4,Win32,59.86231667,11,learning,1,resources/alien1_norm.png,0.542473982,resources/alien2_norm.png,0.419697183,TRUE,TRUE,3,0.863984037,red,x,0.3183,alien2,TRUE,3,0.818625901,27,0,0.419697183,m,0.6515,0,58,58,58,1,0.542473982,0.419697183,0.440081302,0.268303514,FALSE,,,,,,,,,,,,,,,,,,,,,,,,,,,,,,,,,
1206ny02,2023-12-06_10h32.12.920,two_step_task_legacy,2022.2.4,Win32,59.86231667,11,learning,0,resources/alien2_norm.png,0.450393207,resources/alien1_norm.png,0.564082304,TRUE,TRUE,3,0.573152258,red,m,1.6362,alien2,TRUE,3,0.54452369,27,0,0.450393207,x,0.6894,0,59,59,59,1,0.564082304,0.450393207,0.498884326,0.280957594,TRUE,,,,,,,,,,,,,,,,,,,,,,,,,,,,,,,,,
1206ny02,2023-12-06_10h32.12.920,two_step_task_legacy,2022.2.4,Win32,59.86231667,11,learning,0,resources/alien3_norm.png,0.512334178,resources/alien4_norm.png,0.29816981,TRUE,TRUE,2,0.169244432,purple,x,0.334,alien3,TRUE,2,0.22324605,28,1,0.512334178,x,0.5024,0,60,60,60,1,0.53981291,0.437230037,0.512334178,0.29816981,FALSE,,,,,,,,,,,,,,,,,,,,,,,,,,,,,,,,,
1206ny02,2023-12-06_10h32.12.920,two_step_task_legacy,2022.2.4,Win32,59.86231667,11,learning,0,resources/alien4_norm.png,0.300398038,resources/alien3_norm.png,0.493255749,TRUE,TRUE,2,0.267781775,purple,x,0.9182,alien3,TRUE,2,0.205156003,29,1,0.493255749,m,0.6012,0,61,61,61,1,0.542198582,0.408523574,0.493255749,0.300398038,TRUE,,,,,,,,,,,,,,,,,,,,,,,,,,,,,,,,,
1206ny02,2023-12-06_10h32.12.920,two_step_task_legacy,2022.2.4,Win32,59.86231667,11,learning,0,resources/alien1_norm.png,0.553400411,resources/alien2_norm.png,0.411077926,TRUE,TRUE,3,0.593656767,red,m,1.0017,alien2,TRUE,2,0.148771706,30,1,0.411077926,m,0.6679,0,62,62,62,1,0.553400411,0.411077926,0.455736393,0.328365954,FALSE,,,,,,,,,,,,,,,,,,,,,,,,,,,,,,,,,
1206ny02,2023-12-06_10h32.12.920,two_step_task_legacy,2022.2.4,Win32,59.86231667,11,learning,0,resources/alien2_norm.png,0.406019514,resources/alien1_norm.png,0.532091217,TRUE,TRUE,3,0.584460752,red,m,0.6852,alien2,TRUE,3,0.433161394,30,0,0.406019514,x,0.6333,0,63,63,63,1,0.532091217,0.406019514,0.43085802,0.296052257,TRUE,,,,,,,,,,,,,,,,,,,,,,,,,,,,,,,,,
1206ny02,2023-12-06_10h32.12.920,two_step_task_legacy,2022.2.4,Win32,59.86231667,11,learning,0,resources/alien4_norm.png,0.308549713,resources/alien3_norm.png,0.431770405,TRUE,TRUE,2,0.524051105,purple,x,0.5179,alien4,TRUE,3,0.562977489,30,0,0.308549713,x,0.815,0,64,64,64,1,0.528556267,0.402954101,0.431770405,0.308549713,TRUE,,,,,,,,,,,,,,,,,,,,,,,,,,,,,,,,,
1206ny02,2023-12-06_10h32.12.920,two_step_task_legacy,2022.2.4,Win32,59.86231667,11,learning,0,resources/alien3_norm.png,0.408306448,resources/alien4_norm.png,0.335566259,TRUE,TRUE,2,0.525243588,purple,x,0.5664,alien3,TRUE,2,0.186560538,31,1,0.408306448,x,0.5023,0,65,65,65,1,0.530871421,0.378496771,0.408306448,0.335566259,FALSE,,,,,,,,,,,,,,,,,,,,,,,,,,,,,,,,,
1206ny02,2023-12-06_10h32.12.920,two_step_task_legacy,2022.2.4,Win32,59.86231667,11,learning,0,resources/alien1_norm.png,0.570239628,resources/alien2_norm.png,0.420658115,TRUE,TRUE,3,0.657853247,red,m,0.5515,alien2,TRUE,2,0.08771474,32,1,0.420658115,m,0.5852,0,66,66,66,1,0.570239628,0.420658115,0.436013766,0.323734119,FALSE,,,,,,,,,,,,,,,,,,,,,,,,,,,,,,,,,
1206ny02,2023-12-06_10h32.12.920,two_step_task_legacy,2022.2.4,Win32,59.86231667,11,learning,1,resources/alien4_norm.png,0.315556681,resources/alien3_norm.png,0.453792841,TRUE,TRUE,2,0.810421162,purple,m,0.802,alien3,TRUE,2,0.09237311,33,1,0.453792841,m,0.4672,0,67,67,67,1,0.591449475,0.448762809,0.453792841,0.315556681,TRUE,,,,,,,,,,,,,,,,,,,,,,,,,,,,,,,,,
1206ny02,2023-12-06_10h32.12.920,two_step_task_legacy,2022.2.4,Win32,59.86231667,11,learning,0,resources/alien1_norm.png,0.563331053,resources/alien2_norm.png,0.474234796,TRUE,TRUE,3,0.076201653,red,m,0.6182,alien2,TRUE,3,0.642387465,33,0,0.474234796,m,0.7113,0,68,68,68,1,0.563331053,0.474234796,0.441660247,0.298122992,FALSE,,,,,,,,,,,,,,,,,,,,,,,,,,,,,,,,,
1206ny02,2023-12-06_10h32.12.920,two_step_task_legacy,2022.2.4,Win32,59.86231667,11,learning,0,resources/alien3_norm.png,0.404262068,resources/alien4_norm.png,0.291150742,TRUE,TRUE,2,0.050078718,purple,x,0.7676,alien3,TRUE,3,0.760977318,33,0,0.404262068,x,0.6461,0,69,69,69,1,0.563152249,0.437253036,0.404262068,0.291150742,FALSE,,,,,,,,,,,,,,,,,,,,,,,,,,,,,,,,,
1206ny02,2023-12-06_10h32.12.920,two_step_task_legacy,2022.2.4,Win32,59.86231667,11,learning,1,resources/alien3_norm.png,0.444846811,resources/alien4_norm.png,0.309207509,TRUE,TRUE,2,0.779875045,purple,m,0.5176,alien3,TRUE,2,0.103942171,34,1,0.444846811,x,0.6205,0,70,70,70,1,0.552683953,0.464935753,0.444846811,0.309207509,FALSE,,,,,,,,,,,,,,,,,,,,,,,,,,,,,,,,,
1206ny02,2023-12-06_10h32.12.920,two_step_task_legacy,2022.2.4,Win32,59.86231667,11,learning,0,resources/alien3_norm.png,0.463570435,resources/alien4_norm.png,0.323545862,TRUE,TRUE,2,0.111477465,purple,x,0.551,alien3,TRUE,2,0.203791046,35,1,0.463570435,x,0.4671,0,71,71,71,1,0.533608205,0.481614969,0.463570435,0.323545862,FALSE,,,,,,,,,,,,,,,,,,,,,,,,,,,,,,,,,
1206ny02,2023-12-06_10h32.12.920,two_step_task_legacy,2022.2.4,Win32,59.86231667,11,learning,0,resources/alien4_norm.png,0.26823201,resources/alien3_norm.png,0.465009016,TRUE,TRUE,2,0.024617098,purple,x,0.5829,alien3,TRUE,3,0.636027761,35,0,0.465009016,m,0.6168,0,72,72,72,1,0.535548537,0.474561818,0.465009016,0.26823201,TRUE,,,,,,,,,,,,,,,,,,,,,,,,,,,,,,,,,
1206ny02,2023-12-06_10h32.12.920,two_step_task_legacy,2022.2.4,Win32,59.86231667,11,learning,1,resources/alien4_norm.png,0.260372941,resources/alien3_norm.png,0.436372984,TRUE,TRUE,2,0.781120823,purple,m,0.434,alien4,TRUE,2,0.159367121,36,1,0.260372941,x,0.7507,0,73,73,73,1,0.542768918,0.440801261,0.436372984,0.260372941,TRUE,,,,,,,,,,,,,,,,,,,,,,,,,,,,,,,,,
1206ny02,2023-12-06_10h32.12.920,two_step_task_legacy,2022.2.4,Win32,59.86231667,11,learning,1,resources/alien3_norm.png,0.458779651,resources/alien4_norm.png,0.260758683,TRUE,TRUE,2,0.874018334,purple,m,0.3509,alien4,TRUE,3,0.306067076,36,0,0.260758683,m,0.617,0,74,74,74,1,0.560222004,0.423159054,0.458779651,0.260758683,FALSE,,,,,,,,,,,,,,,,,,,,,,,,,,,,,,,,,
1206ny02,2023-12-06_10h32.12.920,two_step_task_legacy,2022.2.4,Win32,59.86231667,11,learning,0,resources/alien2_norm.png,0.448163788,resources/alien1_norm.png,0.539174426,TRUE,TRUE,3,0.408078668,red,m,0.3174,alien2,TRUE,2,0.170159823,37,1,0.448163788,x,0.7297,0,75,75,75,1,0.539174426,0.448163788,0.455266135,0.257379297,TRUE,,,,,,,,,,,,,,,,,,,,,,,,,,,,,,,,,
1206ny02,2023-12-06_10h32.12.920,two_step_task_legacy,2022.2.4,Win32,59.86231667,11,learning,1,resources/alien2_norm.png,0.478471932,resources/alien1_norm.png,0.537408479,TRUE,TRUE,3,0.814383695,red,x,0.3341,alien2,TRUE,3,0.647776409,37,0,0.478471932,x,0.8014,0,76,76,76,1,0.537408479,0.478471932,0.420217761,0.270596693,TRUE,,,,,,,,,,,,,,,,,,,,,,,,,,,,,,,,,
1206ny02,2023-12-06_10h32.12.920,two_step_task_legacy,2022.2.4,Win32,59.86231667,11,learning,0,resources/alien3_norm.png,0.409778881,resources/alien4_norm.png,0.277037121,TRUE,TRUE,2,0.059616981,purple,x,0.4509,alien4,TRUE,2,0.110973801,38,1,0.277037121,m,1.2294,0,77,77,77,1,0.512388297,0.457419685,0.409778881,0.277037121,FALSE,,,,,,,,,,,,,,,,,,,,,,,,,,,,,,,,,
1206ny02,2023-12-06_10h32.12.920,two_step_task_legacy,2022.2.4,Win32,59.86231667,11,learning,1,resources/alien1_norm.png,0.489858931,resources/alien2_norm.png,0.466419283,TRUE,TRUE,3,0.769542794,red,x,0.6507,alien2,TRUE,3,0.621308479,38,0,0.466419283,m,0.7298,0,78,78,78,1,0.489858931,0.466419283,0.372565236,0.270516911,FALSE,,,,,,,,,,,,,,,,,,,,,,,,,,,,,,,,,
1206ny02,2023-12-06_10h32.12.920,two_step_task_legacy,2022.2.4,Win32,59.86231667,11,learning,1,resources/alien2_norm.png,0.466375344,resources/alien1_norm.png,0.540816343,TRUE,TRUE,3,0.755169226,red,x,0.6007,alien1,TRUE,2,0.171173746,39,1,0.540816343,m,0.784,0,79,79,79,1,0.540816343,0.466375344,0.390463231,0.262603515,TRUE,,,,,,,,,,,,,,,,,,,,,,,,,,,,,,,,,
1206ny02,2023-12-06_10h32.12.920,two_step_task_legacy,2022.2.4,Win32,59.86231667,11,learning,0,resources/alien1_norm.png,0.506499763,resources/alien2_norm.png,0.477354251,TRUE,TRUE,3,0.323544946,red,m,0.801,alien2,TRUE,3,0.634399874,39,0,0.477354251,m,0.9333,0,80,80,80,1,0.506499763,0.477354251,0.380539765,0.268738173,FALSE,,,,,,,,,,,,,,,,,,,,,,,,,,,,,,,,,
1206ny02,2023-12-06_10h32.12.920,two_step_task_legacy,2022.2.4,Win32,59.86231667,11,learning,0,resources/alien1_norm.png,0.509536953,resources/alien2_norm.png,0.486946319,TRUE,TRUE,3,0.10305499,red,m,0.4507,alien2,TRUE,3,0.737090351,39,0,0.486946319,m,1.1377,0,81,81,81,1,0.509536953,0.486946319,0.37781899,0.278779841,FALSE,,,,,,,,,,,,,,,,,,,,,,,,,,,,,,,,,
1206ny02,2023-12-06_10h32.12.920,two_step_task_legacy,2022.2.4,Win32,59.86231667,11,learning,0,resources/alien2_norm.png,0.530653946,resources/alien1_norm.png,0.474041688,TRUE,TRUE,3,0.34099912,red,m,0.3677,alien1,TRUE,2,0.300956685,40,1,0.474041688,m,0.7025,0,82,82,82,1,0.474041688,0.530653946,0.392303267,0.287459421,TRUE,,,,,,,,,,,,,,,,,,,,,,,,,,,,,,,,,
1206ny02,2023-12-06_10h32.12.920,two_step_task_legacy,2022.2.4,Win32,59.86231667,11,learning,0,resources/alien2_norm.png,0.582042098,resources/alien1_norm.png,0.424967503,TRUE,TRUE,3,0.519532874,red,m,0.4842,alien1,TRUE,2,0.321754527,41,1,0.424967503,m,0.4164,0,83,83,83,1,0.424967503,0.582042098,0.440685571,0.254140851,TRUE,,,,,,,,,,,,,,,,,,,,,,,,,,,,,,,,,
1206ny02,2023-12-06_10h32.12.920,two_step_task_legacy,2022.2.4,Win32,59.86231667,11,learning,1,resources/alien3_norm.png,0.426076015,resources/alien4_norm.png,0.254161277,TRUE,TRUE,2,0.767335066,purple,m,0.12,alien4,TRUE,3,0.26799331,41,0,0.254161277,m,1.1113,0,84,84,84,1,0.397793995,0.603390008,0.426076015,0.254161277,FALSE,,,,,,,,,,,,,,,,,,,,,,,,,,,,,,,,,
1206ny02,2023-12-06_10h32.12.920,two_step_task_legacy,2022.2.4,Win32,59.86231667,11,learning,1,resources/alien3_norm.png,0.412731233,resources/alien4_norm.png,0.287499545,TRUE,TRUE,2,0.867961332,purple,m,0.334,alien3,TRUE,3,0.871719035,41,0,0.412731233,x,0.8659,0,85,85,85,1,0.353896535,0.591340821,0.412731233,0.287499545,FALSE,,,,,,,,,,,,,,,,,,,,,,,,,,,,,,,,,
1206ny02,2023-12-06_10h32.12.920,two_step_task_legacy,2022.2.4,Win32,59.86231667,11,learning,0,resources/alien2_norm.png,0.589031784,resources/alien1_norm.png,0.37056204,TRUE,TRUE,3,0.6929067,red,m,0.6679,alien1,TRUE,3,0.609116073,41,0,0.37056204,m,0.6788,0,86,86,86,1,0.37056204,0.589031784,0.405193684,0.329089706,TRUE,,,,,,,,,,,,,,,,,,,,,,,,,,,,,,,,,
1206ny02,2023-12-06_10h32.12.920,two_step_task_legacy,2022.2.4,Win32,59.86231667,11,learning,0,resources/alien1_norm.png,0.392392507,resources/alien2_norm.png,0.580656964,TRUE,TRUE,3,0.68431634,red,m,0.3175,alien1,TRUE,2,0.351349166,42,1,0.392392507,x,0.7505,0,87,87,87,1,0.392392507,0.580656964,0.415436249,0.298753594,FALSE,,,,,,,,,,,,,,,,,,,,,,,,,,,,,,,,,
1206ny02,2023-12-06_10h32.12.920,two_step_task_legacy,2022.2.4,Win32,59.86231667,11,learning,0,resources/alien1_norm.png,0.430938527,resources/alien2_norm.png,0.589667006,TRUE,TRUE,3,0.620167781,red,m,0.3506,alien1,TRUE,3,0.72997707,42,0,0.430938527,x,0.4176,0,88,88,88,1,0.430938527,0.589667006,0.395801273,0.35786834,FALSE,,,,,,,,,,,,,,,,,,,,,,,,,,,,,,,,,
1206ny02,2023-12-06_10h32.12.920,two_step_task_legacy,2022.2.4,Win32,59.86231667,11,learning,1,resources/alien1_norm.png,0.425500089,resources/alien2_norm.png,0.585241124,TRUE,TRUE,3,0.715255448,red,x,0.2838,alien1,TRUE,2,0.337874336,43,1,0.425500089,x,0.8338,0,89,89,89,1,0.425500089,0.585241124,0.381916612,0.370932323,FALSE,,,,,,,,,,,,,,,,,,,,,,,,,,,,,,,,,
1206ny02,2023-12-06_10h32.12.920,two_step_task_legacy,2022.2.4,Win32,59.86231667,11,learning,0,resources/alien2_norm.png,0.586839223,resources/alien1_norm.png,0.429761836,TRUE,TRUE,3,0.061590187,red,m,0.4838,alien1,TRUE,2,0.281693705,44,1,0.429761836,m,0.6809,0,90,90,90,1,0.429761836,0.586839223,0.388688958,0.37105745,TRUE,,,,,,,,,,,,,,,,,,,,,,,,,,,,,,,,,
1206ny02,2023-12-06_10h32.12.920,two_step_task_legacy,2022.2.4,Win32,59.86231667,11,learning,0,resources/alien4_norm.png,0.348228929,resources/alien3_norm.png,0.372095661,TRUE,TRUE,2,0.672355285,purple,x,0.2674,alien3,TRUE,3,0.433668082,44,0,0.372095661,m,1.4959,0,91,91,91,1,0.43208582,0.559902226,0.372095661,0.348228929,TRUE,,,,,,,,,,,,,,,,,,,,,,,,,,,,,,,,,
1206ny02,2023-12-06_10h32.12.920,two_step_task_legacy,2022.2.4,Win32,59.86231667,11,learning,1,resources/alien1_norm.png,0.461985946,resources/alien2_norm.png,0.558620764,TRUE,TRUE,3,0.883637921,red,x,0.3005,alien1,TRUE,3,0.680387513,44,0,0.461985946,x,0.832,0,92,92,92,1,0.461985946,0.558620764,0.375940415,0.325999614,FALSE,,,,,,,,,,,,,,,,,,,,,,,,,,,,,,,,,
1206ny02,2023-12-06_10h32.12.920,two_step_task_legacy,2022.2.4,Win32,59.86231667,11,learning,0,resources/alien4_norm.png,0.332279798,resources/alien3_norm.png,0.381640589,TRUE,TRUE,2,0.290841344,purple,x,0.1514,alien3,TRUE,3,0.811033388,44,0,0.381640589,m,0.716,0,93,93,93,1,0.474247227,0.550374425,0.381640589,0.332279798,TRUE,,,,,,,,,,,,,,,,,,,,,,,,,,,,,,,,,
1206ny02,2023-12-06_10h32.12.920,two_step_task_legacy,2022.2.4,Win32,59.86231667,11,learning,0,resources/alien3_norm.png,0.396206696,resources/alien4_norm.png,0.349684918,TRUE,TRUE,2,0.301021669,purple,x,0.3006,alien4,TRUE,3,0.890845108,44,0,0.349684918,m,0.7507,0,94,94,94,1,0.461705647,0.55027378,0.396206696,0.349684918,FALSE,,,,,,,,,,,,,,,,,,,,,,,,,,,,,,,,,
1206ny02,2023-12-06_10h32.12.920,two_step_task_legacy,2022.2.4,Win32,59.86231667,11,learning,0,resources/alien3_norm.png,0.38053924,resources/alien4_norm.png,0.354236965,TRUE,TRUE,2,0.595496558,purple,x,0.4174,alien4,TRUE,3,0.733549749,44,0,0.354236965,m,0.6706,0,95,95,95,1,0.416984428,0.598369056,0.38053924,0.354236965,FALSE,,,,,,,,,,,,,,,,,,,,,,,,,,,,,,,,,
1206ny02,2023-12-06_10h32.12.920,two_step_task_legacy,2022.2.4,Win32,59.86231667,11,learning,0,resources/alien1_norm.png,0.407761739,resources/alien2_norm.png,0.609173656,TRUE,TRUE,3,0.288977824,red,m,0.2838,alien2,TRUE,2,0.046393034,45,1,0.609173656,m,1.0622,0,96,96,96,1,0.407761739,0.609173656,0.428114694,0.407247632,FALSE,,,,,,,,,,,,,,,,,,,,,,,,,,,,,,,,,
1206ny02,2023-12-06_10h32.12.920,two_step_task_legacy,2022.2.4,Win32,59.86231667,11,learning,0,resources/alien2_norm.png,0.572817306,resources/alien1_norm.png,0.409341462,TRUE,TRUE,3,0.084443848,red,m,0.3167,alien2,TRUE,2,0.149830725,46,1,0.572817306,x,0.9842,0,97,97,97,1,0.409341462,0.572817306,0.436490439,0.380856422,TRUE,,,,,,,,,,,,,,,,,,,,,,,,,,,,,,,,,
1206ny02,2023-12-06_10h32.12.920,two_step_task_legacy,2022.2.4,Win32,59.86231667,11,learning,0,resources/alien2_norm.png,0.581511113,resources/alien1_norm.png,0.448797335,TRUE,TRUE,3,0.304309665,red,m,0.7012,alien2,TRUE,3,0.754065712,46,0,0.581511113,x,0.6342,0,98,98,98,1,0.448797335,0.581511113,0.448093405,0.349942531,TRUE,,,,,,,,,,,,,,,,,,,,,,,,,,,,,,,,,
1206ny02,2023-12-06_10h32.12.920,two_step_task_legacy,2022.2.4,Win32,59.86231667,11,learning,0,resources/alien2_norm.png,0.567760205,resources/alien1_norm.png,0.42387903,TRUE,TRUE,3,0.36559675,red,m,0.1533,alien2,TRUE,3,0.853669914,46,0,0.567760205,x,0.5172,0,99,99,99,1,0.42387903,0.567760205,0.482171592,0.400056614,TRUE,,,,,,,,,,,,,,,,,,,,,,,,,,,,,,,,,
1206ny02,2023-12-06_10h32.12.920,two_step_task_legacy,2022.2.4,Win32,59.86231667,11,learning,1,resources/alien4_norm.png,0.415091917,resources/alien3_norm.png,0.46141079,TRUE,TRUE,2,0.883002209,purple,m,0.3013,alien3,TRUE,2,0.260261354,47,1,0.46141079,m,1.5968,0,100,100,100,1,0.412420681,0.563890316,0.46141079,0.415091917,TRUE,,,,,,,,,,,,,,,,,,,,,,,,,,,,,,,,,
1206ny02,2023-12-06_10h32.12.920,two_step_task_legacy,2022.2.4,Win32,59.86231667,11,learning,0,resources/alien2_norm.png,0.600035433,resources/alien1_norm.png,0.409728183,TRUE,TRUE,3,0.023301082,red,m,0.7696,alien2,TRUE,3,0.757189456,47,0,0.600035433,x,0.4795,0,101,101,101,1,0.409728183,0.600035433,0.41992287,0.420370004,TRUE,,,,,,,,,,,,,,,,,,,,,,,,,,,,,,,,,
1206ny02,2023-12-06_10h32.12.920,two_step_task_legacy,2022.2.4,Win32,59.86231667,11,learning,0,resources/alien3_norm.png,0.421461486,resources/alien4_norm.png,0.407756446,TRUE,TRUE,2,0.682328035,purple,x,0.5191,alien3,TRUE,3,0.530228842,47,0,0.421461486,x,0.8623,0,102,102,102,1,0.470023162,0.598082931,0.421461486,0.407756446,FALSE,,,,,,,,,,,,,,,,,,,,,,,,,,,,,,,,,
1206ny02,2023-12-06_10h32.12.920,two_step_task_legacy,2022.2.4,Win32,59.86231667,11,learning,1,resources/alien1_norm.png,0.43789257,resources/alien2_norm.png,0.606396931,TRUE,TRUE,3,0.982685783,red,x,0.2528,alien2,TRUE,3,0.65837262,47,0,0.606396931,m,1.3164,0,103,103,103,1,0.43789257,0.606396931,0.412157498,0.39986788,FALSE,,,,,,,,,,,,,,,,,,,,,,,,,,,,,,,,,
1206ny02,2023-12-06_10h32.12.920,two_step_task_legacy,2022.2.4,Win32,59.86231667,11,learning,0,resources/alien3_norm.png,0.383872268,resources/alien4_norm.png,0.425433133,TRUE,TRUE,2,0.659642098,purple,x,0.4013,alien3,TRUE,3,0.936073415,47,0,0.383872268,x,0.6675,0,104,104,104,1,0.475073433,0.600008534,0.383872268,0.425433133,FALSE,,,,,,,,,,,,,,,,,,,,,,,,,,,,,,,,,
1206ny02,2023-12-06_10h32.12.920,two_step_task_legacy,2022.2.4,Win32,59.86231667,11,learning,1,resources/alien2_norm.png,0.621019516,resources/alien1_norm.png,0.459455836,TRUE,TRUE,3,0.86669488,red,x,0.2676,alien1,TRUE,2,0.332648206,48,1,0.459455836,m,1.3344,0,105,105,105,1,0.459455836,0.621019516,0.369077296,0.416159119,TRUE,,,,,,,,,,,,,,,,,,,,,,,,,,,,,,,,,
1206ny02,2023-12-06_10h32.12.920,two_step_task_legacy,2022.2.4,Win32,59.86231667,11,learning,1,resources/alien3_norm.png,0.370186364,resources/alien4_norm.png,0.426891694,TRUE,TRUE,2,0.848082342,purple,m,0.2685,alien4,TRUE,2,0.187921135,49,1,0.426891694,m,0.4669,0,106,106,106,1,0.439265695,0.612005637,0.370186364,0.426891694,FALSE,,,,,,,,,,,,,,,,,,,,,,,,,,,,,,,,,
1206ny02,2023-12-06_10h32.12.920,two_step_task_legacy,2022.2.4,Win32,59.86231667,11,learning,0,resources/alien1_norm.png,0.416861628,resources/alien2_norm.png,0.613214029,TRUE,TRUE,3,0.135185933,red,m,0.1524,alien1,TRUE,3,0.486714653,49,0,0.416861628,x,0.8508,0,107,107,107,1,0.416861628,0.613214029,0.403070205,0.443933115,FALSE,,,,,,,,,,,,,,,,,,,,,,,,,,,,,,,,,
1206ny02,2023-12-06_10h32.12.920,two_step_task_legacy,2022.2.4,Win32,59.86231667,11,learning,0,resources/alien3_norm.png,0.4123455,resources/alien4_norm.png,0.404109598,TRUE,TRUE,2,0.31129516,purple,x,0.2429,alien4,TRUE,3,0.722180193,49,0,0.404109598,m,0.7155,0,108,108,108,1,0.370312188,0.630447984,0.4123455,0.404109598,FALSE,,,,,,,,,,,,,,,,,,,,,,,,,,,,,,,,,
1206ny02,2023-12-06_10h32.12.920,two_step_task_legacy,2022.2.4,Win32,59.86231667,11,learning,0,resources/alien4_norm.png,0.39028751,resources/alien3_norm.png,0.424317647,TRUE,TRUE,2,0.194007489,purple,x,0.1855,alien4,TRUE,3,0.80802897,49,0,0.39028751,x,0.9665,0,109,109,109,1,0.397578743,0.640961938,0.424317647,0.39028751,TRUE,,,,,,,,,,,,,,,,,,,,,,,,,,,,,,,,,
1206ny02,2023-12-06_10h32.12.920,two_step_task_legacy,2022.2.4,Win32,59.86231667,11,learning,0,resources/alien1_norm.png,0.382105981,resources/alien2_norm.png,0.616897372,TRUE,TRUE,3,0.567753724,red,m,0.2845,alien2,TRUE,3,0.815563269,49,0,0.616897372,m,0.801,0,110,110,110,1,0.382105981,0.616897372,0.442095075,0.412876683,FALSE,,,,,,,,,,,,,,,,,,,,,,,,,,,,,,,,,
1206ny02,2023-12-06_10h32.12.920,two_step_task_legacy,2022.2.4,Win32,59.86231667,11,learning,0,resources/alien1_norm.png,0.384277465,resources/alien2_norm.png,0.604947349,TRUE,TRUE,3,0.398407953,red,m,0.3341,alien1,TRUE,2,0.229364343,50,1,0.384277465,x,0.8848,0,111,111,111,1,0.384277465,0.604947349,0.431070335,0.374497877,FALSE,,,,,,,,,,,,,,,,,,,,,,,,,,,,,,,,,
1206ny02,2023-12-06_10h32.12.920,two_step_task_legacy,2022.2.4,Win32,59.86231667,11,learning,1,resources/alien3_norm.png,0.440914329,resources/alien4_norm.png,0.389385149,TRUE,TRUE,2,0.729359138,purple,m,0.3177,alien4,TRUE,2,0.238014071,51,1,0.389385149,m,1.2848,0,112,112,112,1,0.386075218,0.619040452,0.440914329,0.389385149,FALSE,,,,,,,,,,,,,,,,,,,,,,,,,,,,,,,,,
1206ny02,2023-12-06_10h32.12.920,two_step_task_legacy,2022.2.4,Win32,59.86231667,11,learning,1,resources/alien3_norm.png,0.481862535,resources/alien4_norm.png,0.41941802,TRUE,TRUE,2,0.965622955,purple,m,0.3175,alien4,TRUE,3,0.569209379,51,0,0.41941802,m,0.7032,0,113,113,113,1,0.360923619,0.648065033,0.481862535,0.41941802,FALSE,,,,,,,,,,,,,,,,,,,,,,,,,,,,,,,,,
1206ny02,2023-12-06_10h32.12.920,two_step_task_legacy,2022.2.4,Win32,59.86231667,11,learning,0,resources/alien3_norm.png,0.49267225,resources/alien4_norm.png,0.440586974,TRUE,TRUE,2,0.464149006,purple,x,0.3536,alien4,TRUE,2,0.424277132,52,1,0.440586974,m,0.8001,0,114,114,114,1,0.32290404,0.673813539,0.49267225,0.440586974,FALSE,,,,,,,,,,,,,,,,,,,,,,,,,,,,,,,,,
1206ny02,2023-12-06_10h32.12.920,two_step_task_legacy,2022.2.4,Win32,59.86231667,11,learning,0,resources/alien3_norm.png,0.509836388,resources/alien4_norm.png,0.461677665,TRUE,TRUE,2,0.180100108,purple,x,0.218,alien4,TRUE,2,0.154898333,53,1,0.461677665,m,0.4356,0,115,115,115,1,0.323455644,0.710523316,0.509836388,0.461677665,FALSE,,,,,,,,,,,,,,,,,,,,,,,,,,,,,,,,,
1206ny02,2023-12-06_10h32.12.920,two_step_task_legacy,2022.2.4,Win32,59.86231667,11,learning,0,resources/alien3_norm.png,0.439463659,resources/alien4_norm.png,0.478781129,TRUE,TRUE,2,0.463923156,purple,x,0.5166,alien4,TRUE,3,0.902890767,53,0,0.478781129,m,0.4007,0,116,116,116,1,0.342298796,0.71345274,0.439463659,0.478781129,FALSE,,,,,,,,,,,,,,,,,,,,,,,,,,,,,,,,,
1206ny02,2023-12-06_10h32.12.920,two_step_task_legacy,2022.2.4,Win32,59.86231667,11,learning,0,resources/alien3_norm.png,0.417535164,resources/alien4_norm.png,0.445291487,TRUE,TRUE,2,0.376749628,purple,x,0.5515,alien4,TRUE,3,0.767597826,53,0,0.445291487,m,0.4006,0,117,117,117,1,0.334859228,0.720890484,0.417535164,0.445291487,FALSE,,,,,,,,,,,,,,,,,,,,,,,,,,,,,,,,,
1206ny02,2023-12-06_10h32.12.920,two_step_task_legacy,2022.2.4,Win32,59.86231667,11,learning,0,resources/alien1_norm.png,0.306028049,resources/alien2_norm.png,0.72441163,TRUE,TRUE,3,0.582320713,red,m,0.4199,alien2,TRUE,2,0.707911956,54,1,0.72441163,m,1.099,0,118,118,118,1,0.306028049,0.72441163,0.388471429,0.461420132,FALSE,,,,,,,,,,,,,,,,,,,,,,,,,,,,,,,,,
1206ny02,2023-12-06_10h32.12.920,two_step_task_legacy,2022.2.4,Win32,59.86231667,11,learning,0,resources/alien2_norm.png,0.700852841,resources/alien1_norm.png,0.331712501,TRUE,TRUE,3,0.610964386,red,m,0.2177,alien2,TRUE,3,0.96014951,54,0,0.700852841,x,0.6041,0,119,119,119,1,0.331712501,0.700852841,0.441704145,0.491748934,TRUE,,,,,,,,,,,,,,,,,,,,,,,,,,,,,,,,,
1206ny02,2023-12-06_10h32.12.920,two_step_task_legacy,2022.2.4,Win32,59.86231667,11,learning,0,resources/alien1_norm.png,0.32951786,resources/alien2_norm.png,0.706027338,TRUE,TRUE,3,0.679861162,red,m,0.2674,alien2,TRUE,2,0.386222031,55,1,0.706027338,m,0.5179,0,120,120,120,1,0.32951786,0.706027338,0.427665055,0.475337246,FALSE,,,,,,,,,,,,,,,,,,,,,,,,,,,,,,,,,
1206ny02,2023-12-06_10h32.12.920,two_step_task_legacy,2022.2.4,Win32,59.86231667,11,learning,1,resources/alien4_norm.png,0.509069185,resources/alien3_norm.png,0.424883353,TRUE,TRUE,2,0.775436049,purple,m,0.2843,alien4,TRUE,2,0.03315266,56,1,0.509069185,x,1.2526,0,121,121,121,1,0.330261592,0.737341807,0.424883353,0.509069185,TRUE,,,,,,,,,,,,,,,,,,,,,,,,,,,,,,,,,
1206ny02,2023-12-06_10h32.12.920,two_step_task_legacy,2022.2.4,Win32,59.86231667,11,learning,0,resources/alien4_norm.png,0.507675589,resources/alien3_norm.png,0.372565975,TRUE,TRUE,2,0.63367956,purple,x,0.2708,alien4,TRUE,2,0.303807962,57,1,0.507675589,x,0.6683,0,122,122,122,1,0.344846278,0.73276884,0.372565975,0.507675589,TRUE,,,,,,,,,,,,,,,,,,,,,,,,,,,,,,,,,
1206ny02,2023-12-06_10h32.12.920,two_step_task_legacy,2022.2.4,Win32,59.86231667,11,learning,0,resources/alien2_norm.png,0.732502141,resources/alien1_norm.png,0.301180071,TRUE,TRUE,3,0.658906493,red,m,0.5014,alien2,TRUE,3,0.909096605,57,0,0.732502141,x,1.0062,0,123,123,123,1,0.301180071,0.732502141,0.417529896,0.517036319,TRUE,,,,,,,,,,,,,,,,,,,,,,,,,,,,,,,,,
1206ny02,2023-12-06_10h32.12.920,two_step_task_legacy,2022.2.4,Win32,59.86231667,11,learning,0,resources/alien2_norm.png,0.685332928,resources/alien1_norm.png,0.302511879,TRUE,TRUE,3,0.52033374,red,m,0.4546,alien1,TRUE,2,0.17383948,58,1,0.302511879,m,0.4176,0,124,124,124,1,0.302511879,0.685332928,0.42173742,0.511184893,TRUE,,,,,,,,,,,,,,,,,,,,,,,,,,,,,,,,,
1206ny02,2023-12-06_10h32.12.920,two_step_task_legacy,2022.2.4,Win32,59.86231667,11,learning,1,resources/alien1_norm.png,0.285413018,resources/alien2_norm.png,0.625335705,TRUE,TRUE,3,0.906401426,red,x,0.2712,alien1,TRUE,3,0.605546161,58,0,0.285413018,x,1.0197,0,125,125,125,1,0.285413018,0.625335705,0.393240926,0.566242911,FALSE,,,,,,,,,,,,,,,,,,,,,,,,,,,,,,,,,
1206ny02,2023-12-06_10h32.12.920,two_step_task_legacy,2022.2.4,Win32,59.86231667,11,learning,1,resources/alien4_norm.png,0.552018895,resources/alien3_norm.png,0.39388883,TRUE,TRUE,2,0.764868819,purple,m,0.3991,alien4,TRUE,3,0.924956763,58,0,0.552018895,x,0.8788,0,126,126,126,1,0.292942249,0.66920814,0.39388883,0.552018895,TRUE,,,,,,,,,,,,,,,,,,,,,,,,,,,,,,,,,
1206ny02,2023-12-06_10h32.12.920,two_step_task_legacy,2022.2.4,Win32,59.86231667,11,learning,0,resources/alien1_norm.png,0.297873079,resources/alien2_norm.png,0.739663062,TRUE,TRUE,3,0.629544086,red,m,0.6842,alien1,TRUE,3,0.614349787,58,0,0.297873079,x,0.9476,0,127,127,127,1,0.297873079,0.739663062,0.430413644,0.566008228,FALSE,,,,,,,,,,,,,,,,,,,,,,,,,,,,,,,,,
1206ny02,2023-12-06_10h32.12.920,two_step_task_legacy,2022.2.4,Win32,59.86231667,11,learning,1,resources/alien2_norm.png,0.741610207,resources/alien1_norm.png,0.322041132,TRUE,TRUE,3,0.773476066,red,x,0.2691,alien2,TRUE,2,0.450352807,59,1,0.741610207,x,0.8669,0,128,128,128,1,0.322041132,0.741610207,0.420023625,0.56929572,TRUE,,,,,,,,,,,,,,,,,,,,,,,,,,,,,,,,,
1206ny02,2023-12-06_10h32.12.920,two_step_task_legacy,2022.2.4,Win32,59.86231667,11,learning,0,resources/alien1_norm.png,0.300972771,resources/alien2_norm.png,0.702201765,TRUE,TRUE,3,0.283850788,red,m,0.2689,alien1,TRUE,3,0.865652311,59,0,0.300972771,x,0.5843,0,129,129,129,1,0.300972771,0.702201765,0.449769214,0.563348669,FALSE,,,,,,,,,,,,,,,,,,,,,,,,,,,,,,,,,
1206ny02,2023-12-06_10h32.12.920,two_step_task_legacy,2022.2.4,Win32,59.86231667,11,learning,0,resources/alien2_norm.png,0.682168877,resources/alien1_norm.png,0.309394882,TRUE,TRUE,3,0.208094672,red,m,0.5387,alien2,TRUE,2,0.402181572,60,1,0.682168877,x,0.8773,0,130,130,130,1,0.309394882,0.682168877,0.476905855,0.543372453,TRUE,,,,,,,,,,,,,,,,,,,,,,,,,,,,,,,,,
1206ny02,2023-12-06_10h32.12.920,two_step_task_legacy,2022.2.4,Win32,59.86231667,11,learning,1,resources/alien4_norm.png,0.535502227,resources/alien3_norm.png,0.481826843,TRUE,TRUE,2,0.835931483,purple,m,0.4196,alien3,TRUE,3,0.489908434,60,0,0.481826843,m,0.599,0,131,131,131,1,0.304060393,0.667549921,0.481826843,0.535502227,TRUE,,,,,,,,,,,,,,,,,,,,,,,,,,,,,,,,,
1206ny02,2023-12-06_10h32.12.920,two_step_task_legacy,2022.2.4,Win32,59.86231667,11,learning,0,resources/alien2_norm.png,0.694841666,resources/alien1_norm.png,0.312140737,TRUE,TRUE,3,0.074747769,red,m,0.4203,alien2,TRUE,2,0.581663248,61,1,0.694841666,x,0.5504,0,132,132,132,1,0.312140737,0.694841666,0.47286744,0.542899405,TRUE,,,,,,,,,,,,,,,,,,,,,,,,,,,,,,,,,
1206ny02,2023-12-06_10h32.12.920,two_step_task_legacy,2022.2.4,Win32,59.86231667,11,learning,0,resources/alien3_norm.png,0.500552221,resources/alien4_norm.png,0.525972175,TRUE,TRUE,2,0.302829598,purple,x,0.2159,alien4,TRUE,2,0.353648009,62,1,0.525972175,m,0.5768,0,133,133,133,1,0.334362108,0.707468685,0.500552221,0.525972175,FALSE,,,,,,,,,,,,,,,,,,,,,,,,,,,,,,,,,
1206ny02,2023-12-06_10h32.12.920,two_step_task_legacy,2022.2.4,Win32,59.86231667,11,learning,0,resources/alien2_norm.png,0.729767243,resources/alien1_norm.png,0.312840567,TRUE,TRUE,3,0.605680889,red,m,0.2671,alien2,TRUE,2,0.320728848,63,1,0.729767243,x,0.5673,0,134,134,134,1,0.312840567,0.729767243,0.485572466,0.503581213,TRUE,,,,,,,,,,,,,,,,,,,,,,,,,,,,,,,,,
1206ny02,2023-12-06_10h32.12.920,two_step_task_legacy,2022.2.4,Win32,59.86231667,11,learning,1,resources/alien4_norm.png,0.5115277,resources/alien3_norm.png,0.466999856,TRUE,TRUE,2,0.950192717,purple,m,0.3347,alien3,TRUE,2,0.142196002,64,1,0.466999856,m,0.7005,0,135,135,135,1,0.312825098,0.743400172,0.466999856,0.5115277,TRUE,,,,,,,,,,,,,,,,,,,,,,,,,,,,,,,,,
1206ny02,2023-12-06_10h32.12.920,two_step_task_legacy,2022.2.4,Win32,59.86231667,11,learning,0,resources/alien1_norm.png,0.342196198,resources/alien2_norm.png,0.734901943,TRUE,TRUE,3,0.589657099,red,m,0.349,alien2,TRUE,2,0.020738568,65,1,0.734901943,m,0.5932,0,136,136,136,1,0.342196198,0.734901943,0.464677105,0.536755588,FALSE,,,,,,,,,,,,,,,,,,,,,,,,,,,,,,,,,
1206ny02,2023-12-06_10h32.12.920,two_step_task_legacy,2022.2.4,Win32,59.86231667,11,learning,1,resources/alien3_norm.png,0.49321831,resources/alien4_norm.png,0.494444841,TRUE,TRUE,2,0.919777211,purple,m,0.1546,alien4,TRUE,2,0.350646224,66,1,0.494444841,m,0.3981,0,137,137,137,1,0.368861684,0.747011609,0.49321831,0.494444841,FALSE,,,,,,,,,,,,,,,,,,,,,,,,,,,,,,,,,
1206ny02,2023-12-06_10h32.12.920,two_step_task_legacy,2022.2.4,Win32,59.86231667,11,learning,0,resources/alien2_norm.png,0.697212233,resources/alien1_norm.png,0.406866843,TRUE,TRUE,3,0.21559793,red,m,0.2679,alien1,TRUE,2,0.241292754,67,1,0.406866843,m,0.281,0,138,138,138,1,0.406866843,0.697212233,0.476455124,0.495924537,TRUE,,,,,,,,,,,,,,,,,,,,,,,,,,,,,,,,,
1206ny02,2023-12-06_10h32.12.920,two_step_task_legacy,2022.2.4,Win32,59.86231667,11,learning,0,resources/alien1_norm.png,0.397205352,resources/alien2_norm.png,0.680972767,TRUE,TRUE,3,0.604925104,red,m,0.0352,alien1,TRUE,3,0.875492964,67,0,0.397205352,x,0.576,0,139,139,139,1,0.397205352,0.680972767,0.492237558,0.482705961,FALSE,,,,,,,,,,,,,,,,,,,,,,,,,,,,,,,,,
1206ny02,2023-12-06_10h32.12.920,two_step_task_legacy,2022.2.4,Win32,59.86231667,11,learning,0,resources/alien2_norm.png,0.71001807,resources/alien1_norm.png,0.425269322,TRUE,TRUE,3,0.2991282,red,m,0.5178,alien1,TRUE,2,0.277819982,68,1,0.425269322,m,0.5709,0,140,140,140,1,0.425269322,0.71001807,0.477118095,0.476273355,TRUE,,,,,,,,,,,,,,,,,,,,,,,,,,,,,,,,,
1206ny02,2023-12-06_10h32.12.920,two_step_task_legacy,2022.2.4,Win32,59.86231667,11,learning,0,resources/alien1_norm.png,0.44999939,resources/alien2_norm.png,0.707254196,TRUE,TRUE,3,0.11165465,red,m,0.3368,alien1,TRUE,3,0.829531141,68,0,0.44999939,x,0.508,0,141,141,141,1,0.44999939,0.707254196,0.53376836,0.506334783,FALSE,,,,,,,,,,,,,,,,,,,,,,,,,,,,,,,,,
1206ny02,2023-12-06_10h32.12.920,two_step_task_legacy,2022.2.4,Win32,59.86231667,11,learning,1,resources/alien1_norm.png,0.45857487,resources/alien2_norm.png,0.713900156,TRUE,TRUE,3,0.722921186,red,x,0.5675,alien2,TRUE,3,0.83361217,68,0,0.713900156,m,1.0351,0,142,142,142,1,0.45857487,0.713900156,0.530369859,0.488537075,FALSE,,,,,,,,,,,,,,,,,,,,,,,,,,,,,,,,,
1206ny02,2023-12-06_10h32.12.920,two_step_task_legacy,2022.2.4,Win32,59.86231667,11,learning,0,resources/alien4_norm.png,0.474258385,resources/alien3_norm.png,0.539460609,TRUE,TRUE,2,0.432125689,purple,x,0.1171,alien3,TRUE,3,0.844310569,68,0,0.539460609,m,1.0228,0,143,143,143,1,0.438181608,0.736832649,0.539460609,0.474258385,TRUE,,,,,,,,,,,,,,,,,,,,,,,,,,,,,,,,,
1206ny02,2023-12-06_10h32.12.920,two_step_task_legacy,2022.2.4,Win32,59.86231667,11,learning,0,resources/alien3_norm.png,0.55840292,resources/alien4_norm.png,0.452808468,TRUE,TRUE,2,0.462461204,purple,x,0.069,alien4,TRUE,2,0.084927766,69,1,0.452808468,m,0.7363,0,144,144,144,1,0.387458235,0.724637397,0.55840292,0.452808468,FALSE,,,,,,,,,,,,,,,,,,,,,,,,,,,,,,,,,
1206ny02,2023-12-06_10h32.12.920,two_step_task_legacy,2022.2.4,Win32,59.86231667,11,learning,1,resources/alien2_norm.png,0.743825326,resources/alien1_norm.png,0.404254171,TRUE,TRUE,3,0.810986599,red,x,0.8182,alien1,TRUE,3,0.406406247,69,0,0.404254171,m,0.9013,0,145,145,145,1,0.404254171,0.743825326,0.616412204,0.486213014,TRUE,,,,,,,,,,,,,,,,,,,,,,,,,,,,,,,,,
1206ny02,2023-12-06_10h32.12.920,two_step_task_legacy,2022.2.4,Win32,59.86231667,11,learning,0,resources/alien3_norm.png,0.615240174,resources/alien4_norm.png,0.484730978,TRUE,TRUE,2,0.127799574,purple,x,0.3017,alien4,TRUE,2,0.073697371,70,1,0.484730978,m,1.2846,0,146,146,146,1,0.367820523,0.710524321,0.615240174,0.484730978,FALSE,,,,,,,,,,,,,,,,,,,,,,,,,,,,,,,,,
1206ny02,2023-12-06_10h32.12.920,two_step_task_legacy,2022.2.4,Win32,59.86231667,11,learning,0,resources/alien4_norm.png,0.430151332,resources/alien3_norm.png,0.581764054,TRUE,TRUE,2,0.393217008,purple,x,0.4171,alien4,TRUE,2,0.095403365,71,1,0.430151332,x,0.7679,0,147,147,147,1,0.362321577,0.70157983,0.581764054,0.430151332,TRUE,,,,,,,,,,,,,,,,,,,,,,,,,,,,,,,,,
1206ny02,2023-12-06_10h32.12.920,two_step_task_legacy,2022.2.4,Win32,59.86231667,11,learning,0,resources/alien4_norm.png,0.425785354,resources/alien3_norm.png,0.576437376,TRUE,TRUE,2,0.585620273,purple,x,0.5175,alien4,TRUE,2,0.141255458,72,1,0.425785354,x,0.5877,0,148,148,148,1,0.302379389,0.735653625,0.576437376,0.425785354,TRUE,,,,,,,,,,,,,,,,,,,,,,,,,,,,,,,,,
1206ny02,2023-12-06_10h32.12.920,two_step_task_legacy,2022.2.4,Win32,59.86231667,11,learning,0,resources/alien3_norm.png,0.598082344,resources/alien4_norm.png,0.396012467,TRUE,TRUE,2,0.04965183,purple,x,0.2512,alien4,TRUE,3,0.880465006,72,0,0.396012467,m,0.5013,0,149,149,149,1,0.326468766,0.701760343,0.598082344,0.396012467,FALSE,,,,,,,,,,,,,,,,,,,,,,,,,,,,,,,,,
1206ny02,2023-12-06_10h32.12.920,two_step_task_legacy,2022.2.4,Win32,59.86231667,11,learning,1,resources/alien2_norm.png,0.7,resources/alien1_norm.png,0.3,TRUE,TRUE,3,0.906341436,red,x,0.473,alien1,TRUE,3,0.956190823,72,0,0.3,m,0.9519,0,150,150,150,1,0.3,0.7,0.6,0.4,TRUE,,,,,,,,,,,,,,,,,,,,,,,,,,,,,,,,,
1206ny02,2023-12-06_10h32.12.920,two_step_task_legacy,2022.2.4,Win32,59.86231667,11,learning,0,resources/alien2_norm.png,0.7,resources/alien1_norm.png,0.3,TRUE,TRUE,3,0.451458864,red,m,0.3714,alien1,TRUE,3,0.413638703,72,0,0.3,m,0.6181,0,151,151,151,1,0.3,0.7,0.6,0.4,TRUE,,,,,,,,,,,,,,,,,,,,,,,,,,,,,,,,,
1206ny02,2023-12-06_10h32.12.920,two_step_task_legacy,2022.2.4,Win32,59.86231667,11,learning,1,resources/alien4_norm.png,0.4,resources/alien3_norm.png,0.6,TRUE,TRUE,2,0.8144531,purple,m,0.2857,alien3,TRUE,2,0.440629218,73,1,0.6,m,1.169,0,152,152,152,1,0.3,0.7,0.6,0.4,TRUE,,,,,,,,,,,,,,,,,,,,,,,,,,,,,,,,,
1206ny02,2023-12-06_10h32.12.920,two_step_task_legacy,2022.2.4,Win32,59.86231667,11,learning,0,resources/alien2_norm.png,0.7,resources/alien1_norm.png,0.3,TRUE,TRUE,3,0.532665391,red,m,0.7846,alien2,TRUE,2,0.653730914,74,1,0.7,x,0.8499,0,153,153,153,1,0.3,0.7,0.6,0.4,TRUE,,,,,,,,,,,,,,,,,,,,,,,,,,,,,,,,,
1206ny02,2023-12-06_10h32.12.920,two_step_task_legacy,2022.2.4,Win32,59.86231667,11,learning,0,resources/alien3_norm.png,0.6,resources/alien4_norm.png,0.4,TRUE,TRUE,2,0.081658034,purple,x,1.9017,alien3,TRUE,3,0.944274695,74,0,0.6,x,1.0325,0,154,154,154,1,0.3,0.7,0.6,0.4,FALSE,,,,,,,,,,,,,,,,,,,,,,,,,,,,,,,,,
1206ny02,2023-12-06_10h32.12.920,two_step_task_legacy,2022.2.4,Win32,59.86231667,11,learning,0,resources/alien2_norm.png,0.7,resources/alien1_norm.png,0.3,TRUE,TRUE,3,0.483742907,red,m,0.6839,alien1,TRUE,3,0.733097815,74,0,0.3,m,0.9815,0,155,155,155,1,0.3,0.7,0.6,0.4,TRUE,,,,,,,,,,,,,,,,,,,,,,,,,,,,,,,,,
1206ny02,2023-12-06_10h32.12.920,two_step_task_legacy,2022.2.4,Win32,59.86231667,11,learning,1,resources/alien1_norm.png,0.3,resources/alien2_norm.png,0.7,TRUE,TRUE,3,0.826646099,red,x,0.5513,alien1,TRUE,3,0.944455695,74,0,0.3,x,0.6763,0,156,156,156,1,0.3,0.7,0.6,0.4,FALSE,,,,,,,,,,,,,,,,,,,,,,,,,,,,,,,,,
1206ny02,2023-12-06_10h32.12.920,two_step_task_legacy,2022.2.4,Win32,59.86231667,11,learning,0,resources/alien1_norm.png,0.3,resources/alien2_norm.png,0.7,TRUE,TRUE,3,0.175006396,red,m,0.4705,alien2,TRUE,2,0.23326217,75,1,0.7,m,0.3939,0,157,157,157,1,0.3,0.7,0.6,0.4,FALSE,,,,,,,,,,,,,,,,,,,,,,,,,,,,,,,,,
1206ny02,2023-12-06_10h32.12.920,two_step_task_legacy,2022.2.4,Win32,59.86231667,11,learning,0,resources/alien4_norm.png,0.4,resources/alien3_norm.png,0.6,TRUE,TRUE,2,0.459322141,purple,x,0.1511,alien4,TRUE,3,0.674080835,75,0,0.4,x,0.5001,0,158,158,158,1,0.3,0.7,0.6,0.4,TRUE,,,,,,,,,,,,,,,,,,,,,,,,,,,,,,,,,
1206ny02,2023-12-06_10h32.12.920,two_step_task_legacy,2022.2.4,Win32,59.86231667,11,learning,0,resources/alien3_norm.png,0.6,resources/alien4_norm.png,0.4,TRUE,TRUE,2,0.367109361,purple,x,0.2182,alien3,TRUE,2,0.573780776,76,1,0.6,x,0.4845,0,159,159,159,1,0.3,0.7,0.6,0.4,FALSE,,,,,,,,,,,,,,,,,,,,,,,,,,,,,,,,,
1206ny02,2023-12-06_10h32.12.920,two_step_task_legacy,2022.2.4,Win32,59.86231667,11,learning,1,resources/alien2_norm.png,0.7,resources/alien1_norm.png,0.3,TRUE,TRUE,3,0.828510773,red,x,0.419,alien1,TRUE,3,0.448415781,76,0,0.3,m,0.5151,0,160,160,160,1,0.3,0.7,0.6,0.4,TRUE,,,,,,,,,,,,,,,,,,,,,,,,,,,,,,,,,
1206ny02,2023-12-06_10h32.12.920,two_step_task_legacy,2022.2.4,Win32,59.86231667,11,learning,0,resources/alien3_norm.png,0.6,resources/alien4_norm.png,0.4,TRUE,TRUE,2,0.380265329,purple,x,0.4523,alien4,TRUE,2,0.032291068,77,1,0.4,m,0.3666,0,161,161,161,1,0.3,0.7,0.6,0.4,FALSE,,,,,,,,,,,,,,,,,,,,,,,,,,,,,,,,,
1206ny02,2023-12-06_10h32.12.920,two_step_task_legacy,2022.2.4,Win32,59.86231667,11,learning,0,resources/alien3_norm.png,0.6,resources/alien4_norm.png,0.4,TRUE,TRUE,2,0.516143671,purple,x,0.268,alien4,TRUE,2,0.103563379,78,1,0.4,m,0.4176,0,162,162,162,1,0.3,0.7,0.6,0.4,FALSE,,,,,,,,,,,,,,,,,,,,,,,,,,,,,,,,,
1206ny02,2023-12-06_10h32.12.920,two_step_task_legacy,2022.2.4,Win32,59.86231667,11,learning,0,resources/alien4_norm.png,0.4,resources/alien3_norm.png,0.6,TRUE,TRUE,2,0.285734039,purple,x,0.3007,alien4,TRUE,2,0.230080654,79,1,0.4,x,0.6011,0,163,163,163,1,0.3,0.7,0.6,0.4,TRUE,,,,,,,,,,,,,,,,,,,,,,,,,,,,,,,,,
1206ny02,2023-12-06_10h32.12.920,two_step_task_legacy,2022.2.4,Win32,59.86231667,11,learning,0,resources/alien3_norm.png,0.6,resources/alien4_norm.png,0.4,TRUE,TRUE,2,0.660324675,purple,x,0.2673,alien4,TRUE,3,0.472818842,79,0,0.4,m,0.5512,0,164,164,164,1,0.3,0.7,0.6,0.4,FALSE,,,,,,,,,,,,,,,,,,,,,,,,,,,,,,,,,
1206ny02,2023-12-06_10h32.12.920,two_step_task_legacy,2022.2.4,Win32,59.86231667,11,learning,0,resources/alien2_norm.png,0.7,resources/alien1_norm.png,0.3,TRUE,TRUE,3,0.41171309,red,m,0.4516,alien1,TRUE,3,0.447040365,79,0,0.3,m,0.648,0,165,165,165,1,0.3,0.7,0.6,0.4,TRUE,,,,,,,,,,,,,,,,,,,,,,,,,,,,,,,,,
1206ny02,2023-12-06_10h32.12.920,two_step_task_legacy,2022.2.4,Win32,59.86231667,11,learning,0,resources/alien1_norm.png,0.3,resources/alien2_norm.png,0.7,TRUE,TRUE,3,0.34497145,red,m,0.3109,alien2,TRUE,2,0.695474338,80,1,0.7,m,0.6506,0,166,166,166,1,0.3,0.7,0.6,0.4,FALSE,,,,,,,,,,,,,,,,,,,,,,,,,,,,,,,,,
1206ny02,2023-12-06_10h32.12.920,two_step_task_legacy,2022.2.4,Win32,59.86231667,11,learning,0,resources/alien2_norm.png,0.7,resources/alien1_norm.png,0.3,TRUE,TRUE,3,0.555066632,red,m,0.4871,alien2,TRUE,2,0.075076483,81,1,0.7,x,0.4419,0,167,167,167,1,0.3,0.7,0.6,0.4,TRUE,,,,,,,,,,,,,,,,,,,,,,,,,,,,,,,,,
1206ny02,2023-12-06_10h32.12.920,two_step_task_legacy,2022.2.4,Win32,59.86231667,11,learning,0,resources/alien2_norm.png,0.7,resources/alien1_norm.png,0.3,TRUE,TRUE,3,0.288936118,red,m,0.2504,alien2,TRUE,2,0.22144358,82,1,0.7,x,0.4611,0,168,168,168,1,0.3,0.7,0.6,0.4,TRUE,,,,,,,,,,,,,,,,,,,,,,,,,,,,,,,,,
1206ny02,2023-12-06_10h32.12.920,two_step_task_legacy,2022.2.4,Win32,59.86231667,11,learning,0,resources/alien4_norm.png,0.4,resources/alien3_norm.png,0.6,TRUE,TRUE,2,0.081116962,purple,x,0.353,alien3,TRUE,3,0.80969225,82,0,0.6,m,0.7977,0,169,169,169,1,0.3,0.7,0.6,0.4,TRUE,,,,,,,,,,,,,,,,,,,,,,,,,,,,,,,,,
1206ny02,2023-12-06_10h32.12.920,two_step_task_legacy,2022.2.4,Win32,59.86231667,11,learning,1,resources/alien4_norm.png,0.4,resources/alien3_norm.png,0.6,TRUE,TRUE,2,0.909132028,purple,m,0.0626,alien3,TRUE,2,0.326947624,83,1,0.6,m,1.3205,0,170,170,170,1,0.3,0.7,0.6,0.4,TRUE,,,,,,,,,,,,,,,,,,,,,,,,,,,,,,,,,
1206ny02,2023-12-06_10h32.12.920,two_step_task_legacy,2022.2.4,Win32,59.86231667,11,learning,1,resources/alien3_norm.png,0.6,resources/alien4_norm.png,0.4,TRUE,TRUE,2,0.962921775,purple,m,0.2841,alien3,TRUE,2,0.182182496,84,1,0.6,x,1.0779,0,171,171,171,1,0.3,0.7,0.6,0.4,FALSE,,,,,,,,,,,,,,,,,,,,,,,,,,,,,,,,,
1206ny02,2023-12-06_10h32.12.920,two_step_task_legacy,2022.2.4,Win32,59.86231667,11,learning,1,resources/alien3_norm.png,0.6,resources/alien4_norm.png,0.4,TRUE,TRUE,2,0.928903366,purple,m,0.251,alien3,TRUE,2,0.395113307,85,1,0.6,x,0.8344,0,172,172,172,1,0.3,0.7,0.6,0.4,FALSE,,,,,,,,,,,,,,,,,,,,,,,,,,,,,,,,,
1206ny02,2023-12-06_10h32.12.920,two_step_task_legacy,2022.2.4,Win32,59.86231667,11,learning,0,resources/alien4_norm.png,0.4,resources/alien3_norm.png,0.6,TRUE,TRUE,2,0.212879746,purple,x,0.3008,alien3,TRUE,3,0.848299449,85,0,0.6,m,0.8662,0,173,173,173,1,0.3,0.7,0.6,0.4,TRUE,,,,,,,,,,,,,,,,,,,,,,,,,,,,,,,,,
1206ny02,2023-12-06_10h32.12.920,two_step_task_legacy,2022.2.4,Win32,59.86231667,11,learning,0,resources/alien4_norm.png,0.4,resources/alien3_norm.png,0.6,TRUE,TRUE,2,0.61325782,purple,x,0.0005,alien3,TRUE,3,0.660747519,85,0,0.6,m,0.7211,0,174,174,174,1,0.3,0.7,0.6,0.4,TRUE,,,,,,,,,,,,,,,,,,,,,,,,,,,,,,,,,
1206ny02,2023-12-06_10h32.12.920,two_step_task_legacy,2022.2.4,Win32,59.86231667,11,learning,1,resources/alien4_norm.png,0.4,resources/alien3_norm.png,0.6,TRUE,TRUE,2,0.86295854,purple,m,0.0691,alien4,TRUE,3,0.694705458,85,0,0.4,x,0.87,0,175,175,175,1,0.3,0.7,0.6,0.4,TRUE,,,,,,,,,,,,,,,,,,,,,,,,,,,,,,,,,
1206ny02,2023-12-06_10h32.12.920,two_step_task_legacy,2022.2.4,Win32,59.86231667,11,learning,0,resources/alien2_norm.png,0.7,resources/alien1_norm.png,0.3,TRUE,TRUE,3,0.206684393,red,m,0.3855,alien2,TRUE,2,0.349972112,86,1,0.7,x,0.7843,0,176,176,176,1,0.3,0.7,0.6,0.4,TRUE,,,,,,,,,,,,,,,,,,,,,,,,,,,,,,,,,
1206ny02,2023-12-06_10h32.12.920,two_step_task_legacy,2022.2.4,Win32,59.86231667,11,learning,1,resources/alien4_norm.png,0.4,resources/alien3_norm.png,0.6,TRUE,TRUE,2,0.72800539,purple,m,0.2358,alien3,TRUE,2,0.352269259,87,1,0.6,m,0.6679,0,177,177,177,1,0.3,0.7,0.6,0.4,TRUE,,,,,,,,,,,,,,,,,,,,,,,,,,,,,,,,,
1206ny02,2023-12-06_10h32.12.920,two_step_task_legacy,2022.2.4,Win32,59.86231667,11,learning,1,resources/alien1_norm.png,0.3,resources/alien2_norm.png,0.7,TRUE,TRUE,3,0.707192103,red,x,0.2507,alien2,TRUE,3,0.784834523,87,0,0.7,m,0.5668,0,178,178,178,1,0.3,0.7,0.6,0.4,FALSE,,,,,,,,,,,,,,,,,,,,,,,,,,,,,,,,,
1206ny02,2023-12-06_10h32.12.920,two_step_task_legacy,2022.2.4,Win32,59.86231667,11,learning,0,resources/alien1_norm.png,0.3,resources/alien2_norm.png,0.7,TRUE,TRUE,3,0.113295123,red,m,0.3013,alien2,TRUE,2,0.520894684,88,1,0.7,m,0.5181,0,179,179,179,1,0.3,0.7,0.6,0.4,FALSE,,,,,,,,,,,,,,,,,,,,,,,,,,,,,,,,,
1206ny02,2023-12-06_10h32.12.920,two_step_task_legacy,2022.2.4,Win32,59.86231667,11,learning,1,resources/alien3_norm.png,0.6,resources/alien4_norm.png,0.4,TRUE,TRUE,2,0.722599641,purple,m,0.3181,alien3,TRUE,2,0.491642386,89,1,0.6,x,0.5167,0,180,180,180,1,0.3,0.7,0.6,0.4,FALSE,,,,,,,,,,,,,,,,,,,,,,,,,,,,,,,,,
1206ny02,2023-12-06_10h32.12.920,two_step_task_legacy,2022.2.4,Win32,59.86231667,11,learning,0,resources/alien1_norm.png,0.3,resources/alien2_norm.png,0.7,TRUE,TRUE,3,0.052658651,red,m,0.0004,alien2,TRUE,3,0.987539834,89,0,0.7,m,0.6328,0,181,181,181,1,0.3,0.7,0.6,0.4,FALSE,,,,,,,,,,,,,,,,,,,,,,,,,,,,,,,,,
1206ny02,2023-12-06_10h32.12.920,two_step_task_legacy,2022.2.4,Win32,59.86231667,11,learning,0,resources/alien3_norm.png,0.6,resources/alien4_norm.png,0.4,TRUE,TRUE,2,0.244771458,purple,x,0.2688,alien3,TRUE,3,0.99557939,89,0,0.6,x,0.6657,0,182,182,182,1,0.3,0.7,0.6,0.4,FALSE,,,,,,,,,,,,,,,,,,,,,,,,,,,,,,,,,
1206ny02,2023-12-06_10h32.12.920,two_step_task_legacy,2022.2.4,Win32,59.86231667,11,learning,1,resources/alien4_norm.png,0.4,resources/alien3_norm.png,0.6,TRUE,TRUE,2,0.898515123,purple,m,0.5177,alien3,TRUE,2,0.30137376,90,1,0.6,m,0.4673,0,183,183,183,1,0.3,0.7,0.6,0.4,TRUE,,,,,,,,,,,,,,,,,,,,,,,,,,,,,,,,,
1206ny02,2023-12-06_10h32.12.920,two_step_task_legacy,2022.2.4,Win32,59.86231667,11,learning,0,resources/alien1_norm.png,0.3,resources/alien2_norm.png,0.7,TRUE,TRUE,3,0.320697543,red,m,0.5507,alien2,TRUE,3,0.721639354,90,0,0.7,m,0.5923,0,184,184,184,1,0.3,0.7,0.6,0.4,FALSE,,,,,,,,,,,,,,,,,,,,,,,,,,,,,,,,,
1206ny02,2023-12-06_10h32.12.920,two_step_task_legacy,2022.2.4,Win32,59.86231667,11,learning,0,resources/alien2_norm.png,0.7,resources/alien1_norm.png,0.3,TRUE,TRUE,3,0.067494987,red,m,0.3503,alien1,TRUE,3,0.956277533,90,0,0.3,m,0.5753,0,185,185,185,1,0.3,0.7,0.6,0.4,TRUE,,,,,,,,,,,,,,,,,,,,,,,,,,,,,,,,,
1206ny02,2023-12-06_10h32.12.920,two_step_task_legacy,2022.2.4,Win32,59.86231667,11,learning,0,resources/alien1_norm.png,0.3,resources/alien2_norm.png,0.7,TRUE,TRUE,3,0.477101281,red,m,0.4845,alien1,TRUE,3,0.611308226,90,0,0.3,x,0.4853,0,186,186,186,1,0.3,0.7,0.6,0.4,FALSE,,,,,,,,,,,,,,,,,,,,,,,,,,,,,,,,,
1206ny02,2023-12-06_10h32.12.920,two_step_task_legacy,2022.2.4,Win32,59.86231667,11,learning,0,resources/alien4_norm.png,0.4,resources/alien3_norm.png,0.6,TRUE,TRUE,2,0.598087489,purple,x,0.3092,alien4,TRUE,3,0.550831143,90,0,0.4,x,0.5424,0,187,187,187,1,0.3,0.7,0.6,0.4,TRUE,,,,,,,,,,,,,,,,,,,,,,,,,,,,,,,,,
1206ny02,2023-12-06_10h32.12.920,two_step_task_legacy,2022.2.4,Win32,59.86231667,11,learning,0,resources/alien3_norm.png,0.6,resources/alien4_norm.png,0.4,TRUE,TRUE,2,0.172617819,purple,x,0.0957,alien3,TRUE,2,0.507557288,91,1,0.6,x,0.5334,0,188,188,188,1,0.3,0.7,0.6,0.4,FALSE,,,,,,,,,,,,,,,,,,,,,,,,,,,,,,,,,
1206ny02,2023-12-06_10h32.12.920,two_step_task_legacy,2022.2.4,Win32,59.86231667,11,learning,0,resources/alien3_norm.png,0.6,resources/alien4_norm.png,0.4,TRUE,TRUE,2,0.492946127,purple,x,0.2967,alien3,TRUE,2,0.179943659,92,1,0.6,x,0.5023,0,189,189,189,1,0.3,0.7,0.6,0.4,FALSE,,,,,,,,,,,,,,,,,,,,,,,,,,,,,,,,,
1206ny02,2023-12-06_10h32.12.920,two_step_task_legacy,2022.2.4,Win32,59.86231667,11,learning,0,resources/alien3_norm.png,0.6,resources/alien4_norm.png,0.4,TRUE,TRUE,2,0.367390043,purple,x,0.3555,alien3,TRUE,3,0.789327708,92,0,0.6,x,0.4257,0,190,190,190,1,0.3,0.7,0.6,0.4,FALSE,,,,,,,,,,,,,,,,,,,,,,,,,,,,,,,,,
1206ny02,2023-12-06_10h32.12.920,two_step_task_legacy,2022.2.4,Win32,59.86231667,11,learning,1,resources/alien3_norm.png,0.6,resources/alien4_norm.png,0.4,TRUE,TRUE,2,0.873330271,purple,m,0.3674,alien3,TRUE,2,0.427171947,93,1,0.6,x,0.7564,0,191,191,191,1,0.3,0.7,0.6,0.4,FALSE,,,,,,,,,,,,,,,,,,,,,,,,,,,,,,,,,
1206ny02,2023-12-06_10h32.12.920,two_step_task_legacy,2022.2.4,Win32,59.86231667,11,learning,0,resources/alien1_norm.png,0.3,resources/alien2_norm.png,0.7,TRUE,TRUE,3,0.224745771,red,m,0.2986,alien2,TRUE,2,0.662397503,94,1,0.7,m,0.4827,0,192,192,192,1,0.3,0.7,0.6,0.4,FALSE,,,,,,,,,,,,,,,,,,,,,,,,,,,,,,,,,
1206ny02,2023-12-06_10h32.12.920,two_step_task_legacy,2022.2.4,Win32,59.86231667,11,learning,0,resources/alien4_norm.png,0.4,resources/alien3_norm.png,0.6,TRUE,TRUE,2,0.586496714,purple,x,0.2506,alien3,TRUE,2,0.458056366,95,1,0.6,m,0.679,0,193,193,193,1,0.3,0.7,0.6,0.4,TRUE,,,,,,,,,,,,,,,,,,,,,,,,,,,,,,,,,
1206ny02,2023-12-06_10h32.12.920,two_step_task_legacy,2022.2.4,Win32,59.86231667,11,learning,1,resources/alien4_norm.png,0.4,resources/alien3_norm.png,0.6,TRUE,TRUE,2,0.992051616,purple,m,0.2835,alien3,TRUE,2,0.091876343,96,1,0.6,m,0.5506,0,194,194,194,1,0.3,0.7,0.6,0.4,TRUE,,,,,,,,,,,,,,,,,,,,,,,,,,,,,,,,,
1206ny02,2023-12-06_10h32.12.920,two_step_task_legacy,2022.2.4,Win32,59.86231667,11,learning,0,resources/alien1_norm.png,0.3,resources/alien2_norm.png,0.7,TRUE,TRUE,3,0.169606656,red,m,0.0519,alien2,TRUE,2,0.209891204,97,1,0.7,m,0.4126,0,195,195,195,1,0.3,0.7,0.6,0.4,FALSE,,,,,,,,,,,,,,,,,,,,,,,,,,,,,,,,,
1206ny02,2023-12-06_10h32.12.920,two_step_task_legacy,2022.2.4,Win32,59.86231667,11,learning,0,resources/alien1_norm.png,0.3,resources/alien2_norm.png,0.7,TRUE,TRUE,3,0.562228867,red,m,0.3679,alien2,TRUE,2,0.639959228,98,1,0.7,m,0.4172,0,196,196,196,1,0.3,0.7,0.6,0.4,FALSE,,,,,,,,,,,,,,,,,,,,,,,,,,,,,,,,,
1206ny02,2023-12-06_10h32.12.920,two_step_task_legacy,2022.2.4,Win32,59.86231667,11,learning,0,resources/alien2_norm.png,0.7,resources/alien1_norm.png,0.3,TRUE,TRUE,3,0.146612768,red,m,0.2842,alien2,TRUE,3,0.865905089,98,0,0.7,x,0.4651,0,197,197,197,1,0.3,0.7,0.6,0.4,TRUE,,,,,,,,,,,,,,,,,,,,,,,,,,,,,,,,,
1206ny02,2023-12-06_10h32.12.920,two_step_task_legacy,2022.2.4,Win32,59.86231667,11,learning,1,resources/alien1_norm.png,0.3,resources/alien2_norm.png,0.7,TRUE,TRUE,3,0.952261334,red,x,0.3344,alien2,TRUE,2,0.3534854,99,1,0.7,m,0.4692,0,198,198,198,1,0.3,0.7,0.6,0.4,FALSE,,,,,,,,,,,,,,,,,,,,,,,,,,,,,,,,,
1206ny02,2023-12-06_10h32.12.920,two_step_task_legacy,2022.2.4,Win32,59.86231667,11,learning,0,resources/alien2_norm.png,0.7,resources/alien1_norm.png,0.3,TRUE,TRUE,3,0.669586064,red,m,0.2362,alien2,TRUE,2,0.115351191,100,1,0.7,x,0.5978,0,199,199,199,1,0.3,0.7,0.6,0.4,TRUE,,,,,,,,,,,,,,,,,,,,,,,,,,,,,,,,,
1206ny02,2023-12-06_10h32.12.920,two_step_task_legacy,2022.2.4,Win32,59.86231667,11,learning,1,resources/alien2_norm.png,0.7,resources/alien1_norm.png,0.3,TRUE,TRUE,3,0.827567148,red,x,0.0348,alien2,TRUE,2,0.012158132,101,1,0.7,x,0.6867,0,200,200,200,1,0.3,0.7,0.6,0.4,TRUE,,,,,,,,,,,,,,,,,,,,,,,,,,,,,,,,,
1206ny02,2023-12-06_10h32.12.920,two_step_task_legacy,2022.2.4,Win32,59.86231667,11,learning,0,resources/alien4_norm.png,0.4,resources/alien3_norm.png,0.6,TRUE,TRUE,2,0.448929743,purple,x,0.1173,alien3,TRUE,2,0.220771109,102,1,0.6,m,0.5502,0,201,201,201,1,0.3,0.7,0.6,0.4,TRUE,,,,,,,,,,,,,,,,,,,,,,,,,,,,,,,,,
1206ny02,2023-12-06_10h32.12.920,two_step_task_legacy,2022.2.4,Win32,59.86231667,11,learning,0,resources/alien1_norm.png,0.3,resources/alien2_norm.png,0.7,TRUE,TRUE,3,0.612106304,red,m,0.2508,alien2,TRUE,2,0.281500807,103,1,0.7,m,0.4428,0,202,202,202,1,0.3,0.7,0.6,0.4,FALSE,,,,,,,,,,,,,,,,,,,,,,,,,,,,,,,,,
1206ny02,2023-12-06_10h32.12.920,two_step_task_legacy,2022.2.4,Win32,59.86231667,11,learning,0,resources/alien2_norm.png,0.7,resources/alien1_norm.png,0.3,TRUE,TRUE,3,0.185198663,red,m,0.4516,alien2,TRUE,3,0.931492989,103,0,0.7,x,0.4503,0,203,203,203,1,0.3,0.7,0.6,0.4,TRUE,,,,,,,,,,,,,,,,,,,,,,,,,,,,,,,,,
1206ny02,2023-12-06_10h32.12.920,two_step_task_legacy,2022.2.4,Win32,59.86231667,11,learning,0,resources/alien4_norm.png,0.4,resources/alien3_norm.png,0.6,TRUE,TRUE,2,0.305678673,purple,x,0.0005,alien3,TRUE,2,0.595407512,104,1,0.6,m,0.4116,0,204,204,204,1,0.3,0.7,0.6,0.4,TRUE,,,,,,,,,,,,,,,,,,,,,,,,,,,,,,,,,
1206ny02,2023-12-06_10h32.12.920,two_step_task_legacy,2022.2.4,Win32,59.86231667,11,learning,0,resources/alien3_norm.png,0.6,resources/alien4_norm.png,0.4,TRUE,TRUE,2,0.633331353,purple,x,0.3534,alien3,TRUE,2,0.444670712,105,1,0.6,x,0.5504,0,205,205,205,1,0.3,0.7,0.6,0.4,FALSE,,,,,,,,,,,,,,,,,,,,,,,,,,,,,,,,,
1206ny02,2023-12-06_10h32.12.920,two_step_task_legacy,2022.2.4,Win32,59.86231667,11,learning,1,resources/alien2_norm.png,0.7,resources/alien1_norm.png,0.3,TRUE,TRUE,3,0.873202449,red,x,0.1682,alien2,TRUE,3,0.970757525,105,0,0.7,x,0.7971,0,206,206,206,1,0.3,0.7,0.6,0.4,TRUE,,,,,,,,,,,,,,,,,,,,,,,,,,,,,,,,,
1206ny02,2023-12-06_10h32.12.920,two_step_task_legacy,2022.2.4,Win32,59.86231667,11,learning,0,resources/alien4_norm.png,0.4,resources/alien3_norm.png,0.6,TRUE,TRUE,2,0.001749892,purple,x,0.1018,alien3,TRUE,2,0.070646991,106,1,0.6,m,0.5788,0,207,207,207,1,0.3,0.7,0.6,0.4,TRUE,,,,,,,,,,,,,,,,,,,,,,,,,,,,,,,,,
1206ny02,2023-12-06_10h32.12.920,two_step_task_legacy,2022.2.4,Win32,59.86231667,11,learning,0,resources/alien4_norm.png,0.4,resources/alien3_norm.png,0.6,TRUE,TRUE,2,0.488375477,purple,x,0.2842,alien3,TRUE,3,0.766084393,106,0,0.6,m,0.4673,0,208,208,208,1,0.3,0.7,0.6,0.4,TRUE,,,,,,,,,,,,,,,,,,,,,,,,,,,,,,,,,
1206ny02,2023-12-06_10h32.12.920,two_step_task_legacy,2022.2.4,Win32,59.86231667,11,learning,1,resources/alien4_norm.png,0.4,resources/alien3_norm.png,0.6,TRUE,TRUE,2,0.966166414,purple,m,0.3175,alien3,TRUE,3,0.636104771,106,0,0.6,m,0.901,0,209,209,209,1,0.3,0.7,0.6,0.4,TRUE,,,,,,,,,,,,,,,,,,,,,,,,,,,,,,,,,
1206ny02,2023-12-06_10h32.12.920,two_step_task_legacy,2022.2.4,Win32,59.86231667,11,learning,0,resources/alien1_norm.png,0.3,resources/alien2_norm.png,0.7,TRUE,TRUE,3,0.337631227,red,m,0.4177,alien1,TRUE,3,0.964270235,106,0,0.3,x,0.5289,0,210,210,210,1,0.3,0.7,0.6,0.4,FALSE,,,,,,,,,,,,,,,,,,,,,,,,,,,,,,,,,
1206ny02,2023-12-06_10h32.12.920,two_step_task_legacy,2022.2.4,Win32,59.86231667,11,learning,0,resources/alien2_norm.png,0.7,resources/alien1_norm.png,0.3,TRUE,TRUE,3,0.65803111,red,m,0.2163,alien1,TRUE,3,0.754087522,106,0,0.3,m,0.6006,0,211,211,211,1,0.3,0.7,0.6,0.4,TRUE,,,,,,,,,,,,,,,,,,,,,,,,,,,,,,,,,
1206ny02,2023-12-06_10h32.12.920,two_step_task_legacy,2022.2.4,Win32,59.86231667,11,learning,0,resources/alien1_norm.png,0.3,resources/alien2_norm.png,0.7,TRUE,TRUE,3,0.613169069,red,m,0.2354,alien2,TRUE,2,0.31778956,107,1,0.7,m,0.5002,0,212,212,212,1,0.3,0.7,0.6,0.4,FALSE,,,,,,,,,,,,,,,,,,,,,,,,,,,,,,,,,
1206ny02,2023-12-06_10h32.12.920,two_step_task_legacy,2022.2.4,Win32,59.86231667,11,learning,0,resources/alien2_norm.png,0.7,resources/alien1_norm.png,0.3,TRUE,TRUE,3,0.111751296,red,m,0.6169,alien2,TRUE,2,0.536320182,108,1,0.7,x,0.4837,0,213,213,213,1,0.3,0.7,0.6,0.4,TRUE,,,,,,,,,,,,,,,,,,,,,,,,,,,,,,,,,
1206ny02,2023-12-06_10h32.12.920,two_step_task_legacy,2022.2.4,Win32,59.86231667,11,learning,1,resources/alien1_norm.png,0.3,resources/alien2_norm.png,0.7,TRUE,TRUE,3,0.876817996,red,x,0.0338,alien2,TRUE,2,0.343134075,109,1,0.7,m,0.4852,0,214,214,214,1,0.3,0.7,0.6,0.4,FALSE,,,,,,,,,,,,,,,,,,,,,,,,,,,,,,,,,
1206ny02,2023-12-06_10h32.12.920,two_step_task_legacy,2022.2.4,Win32,59.86231667,11,learning,0,resources/alien4_norm.png,0.4,resources/alien3_norm.png,0.6,TRUE,TRUE,2,0.501088764,purple,x,0.0505,alien3,TRUE,2,0.527079859,110,1,0.6,m,0.4939,0,215,215,215,1,0.3,0.7,0.6,0.4,TRUE,,,,,,,,,,,,,,,,,,,,,,,,,,,,,,,,,
1206ny02,2023-12-06_10h32.12.920,two_step_task_legacy,2022.2.4,Win32,59.86231667,11,learning,0,resources/alien3_norm.png,0.6,resources/alien4_norm.png,0.4,TRUE,TRUE,2,0.676760992,purple,x,0.2339,alien3,TRUE,2,0.529177627,111,1,0.6,x,0.4503,0,216,216,216,1,0.3,0.7,0.6,0.4,FALSE,,,,,,,,,,,,,,,,,,,,,,,,,,,,,,,,,
1206ny02,2023-12-06_10h32.12.920,two_step_task_legacy,2022.2.4,Win32,59.86231667,11,learning,1,resources/alien2_norm.png,0.7,resources/alien1_norm.png,0.3,TRUE,TRUE,3,0.925802562,red,x,0.2348,alien2,TRUE,2,0.156901748,112,1,0.7,x,0.5952,0,217,217,217,1,0.3,0.7,0.6,0.4,TRUE,,,,,,,,,,,,,,,,,,,,,,,,,,,,,,,,,
1206ny02,2023-12-06_10h32.12.920,two_step_task_legacy,2022.2.4,Win32,59.86231667,11,learning,0,resources/alien2_norm.png,0.7,resources/alien1_norm.png,0.3,TRUE,TRUE,3,0.201894875,red,m,0.2841,alien2,TRUE,2,0.210243604,113,1,0.7,x,0.6173,0,218,218,218,1,0.3,0.7,0.6,0.4,TRUE,,,,,,,,,,,,,,,,,,,,,,,,,,,,,,,,,
1206ny02,2023-12-06_10h32.12.920,two_step_task_legacy,2022.2.4,Win32,59.86231667,11,learning,0,resources/alien4_norm.png,0.4,resources/alien3_norm.png,0.6,TRUE,TRUE,2,0.152780072,purple,x,0.4508,alien3,TRUE,2,0.153735663,114,1,0.6,m,0.6616,0,219,219,219,1,0.3,0.7,0.6,0.4,TRUE,,,,,,,,,,,,,,,,,,,,,,,,,,,,,,,,,
1206ny02,2023-12-06_10h32.12.920,two_step_task_legacy,2022.2.4,Win32,59.86231667,11,learning,0,resources/alien2_norm.png,0.7,resources/alien1_norm.png,0.3,TRUE,TRUE,3,0.091733228,red,m,0.5674,alien2,TRUE,3,0.873031728,114,0,0.7,x,0.5959,0,220,220,220,1,0.3,0.7,0.6,0.4,TRUE,,,,,,,,,,,,,,,,,,,,,,,,,,,,,,,,,
1206ny02,2023-12-06_10h32.12.920,two_step_task_legacy,2022.2.4,Win32,59.86231667,11,learning,0,resources/alien4_norm.png,0.4,resources/alien3_norm.png,0.6,TRUE,TRUE,2,0.307203356,purple,x,1.8707,alien3,TRUE,2,0.518167148,115,1,0.6,m,0.7626,0,221,221,221,1,0.3,0.7,0.6,0.4,TRUE,,,,,,,,,,,,,,,,,,,,,,,,,,,,,,,,,
1206ny02,2023-12-06_10h32.12.920,two_step_task_legacy,2022.2.4,Win32,59.86231667,11,learning,1,resources/alien4_norm.png,0.4,resources/alien3_norm.png,0.6,TRUE,TRUE,2,0.99737444,purple,m,0.6008,alien3,TRUE,3,0.812009299,115,0,0.6,m,0.8842,0,222,222,222,1,0.3,0.7,0.6,0.4,TRUE,,,,,,,,,,,,,,,,,,,,,,,,,,,,,,,,,
1206ny02,2023-12-06_10h32.12.920,two_step_task_legacy,2022.2.4,Win32,59.86231667,11,learning,0,resources/alien4_norm.png,0.4,resources/alien3_norm.png,0.6,TRUE,TRUE,2,0.373327784,purple,x,0.6852,alien3,TRUE,2,0.354941943,116,1,0.6,m,0.7172,0,223,223,223,1,0.3,0.7,0.6,0.4,TRUE,,,,,,,,,,,,,,,,,,,,,,,,,,,,,,,,,
1206ny02,2023-12-06_10h32.12.920,two_step_task_legacy,2022.2.4,Win32,59.86231667,11,learning,0,,,,,FALSE,FALSE,2,0.510632168,purple,,,,,,,,,,,,0,224,224,224,1,0.3,0.7,0.6,0.4,FALSE,,,,,,,,,,,,,,,,,,,,,,,,,,,,,,,,,
1206ny02,2023-12-06_10h32.12.920,two_step_task_legacy,2022.2.4,Win32,59.86231667,11,learning,0,resources/alien2_norm.png,0.7,resources/alien1_norm.png,0.3,TRUE,TRUE,3,0.30233855,red,m,1.7853,alien1,TRUE,3,0.390848836,116,0,0.3,m,0.395,0,225,225,225,1,0.3,0.7,0.6,0.4,TRUE,,,,,,,,,,,,,,,,,,,,,,,,,,,,,,,,,
1206ny02,2023-12-06_10h32.12.920,two_step_task_legacy,2022.2.4,Win32,59.86231667,11,learning,0,resources/alien1_norm.png,0.3,resources/alien2_norm.png,0.7,TRUE,TRUE,3,0.394791162,red,m,0.3863,alien2,TRUE,3,0.932226531,116,0,0.7,m,0.5171,0,226,226,226,1,0.3,0.7,0.6,0.4,FALSE,,,,,,,,,,,,,,,,,,,,,,,,,,,,,,,,,
1206ny02,2023-12-06_10h32.12.920,two_step_task_legacy,2022.2.4,Win32,59.86231667,11,learning,0,resources/alien1_norm.png,0.3,resources/alien2_norm.png,0.7,TRUE,TRUE,3,0.083579257,red,m,0.3014,alien1,TRUE,2,0.008515951,117,1,0.3,x,0.4851,0,227,227,227,1,0.3,0.7,0.6,0.4,FALSE,,,,,,,,,,,,,,,,,,,,,,,,,,,,,,,,,
1206ny02,2023-12-06_10h32.12.920,two_step_task_legacy,2022.2.4,Win32,59.86231667,11,learning,1,resources/alien4_norm.png,0.4,resources/alien3_norm.png,0.6,TRUE,TRUE,2,0.884827728,purple,m,0.1174,alien3,TRUE,2,0.270586329,118,1,0.6,m,0.6936,0,228,228,228,1,0.3,0.7,0.6,0.4,TRUE,,,,,,,,,,,,,,,,,,,,,,,,,,,,,,,,,
1206ny02,2023-12-06_10h32.12.920,two_step_task_legacy,2022.2.4,Win32,59.86231667,11,learning,0,resources/alien2_norm.png,0.7,resources/alien1_norm.png,0.3,TRUE,TRUE,3,0.689769398,red,m,0.1022,alien2,TRUE,2,0.574990916,119,1,0.7,x,0.6307,0,229,229,229,1,0.3,0.7,0.6,0.4,TRUE,,,,,,,,,,,,,,,,,,,,,,,,,,,,,,,,,
1206ny02,2023-12-06_10h32.12.920,two_step_task_legacy,2022.2.4,Win32,59.86231667,11,learning,0,resources/alien3_norm.png,0.6,resources/alien4_norm.png,0.4,TRUE,TRUE,2,0.6083568,purple,x,0.2671,alien3,TRUE,3,0.671219783,119,0,0.6,x,0.612,0,230,230,230,1,0.3,0.7,0.6,0.4,FALSE,,,,,,,,,,,,,,,,,,,,,,,,,,,,,,,,,
1206ny02,2023-12-06_10h32.12.920,two_step_task_legacy,2022.2.4,Win32,59.86231667,11,learning,0,resources/alien3_norm.png,0.6,resources/alien4_norm.png,0.4,TRUE,TRUE,2,0.643220494,purple,x,0.2169,alien4,TRUE,3,0.619265744,119,0,0.4,m,0.6527,0,231,231,231,1,0.3,0.7,0.6,0.4,FALSE,,,,,,,,,,,,,,,,,,,,,,,,,,,,,,,,,
1206ny02,2023-12-06_10h32.12.920,two_step_task_legacy,2022.2.4,Win32,59.86231667,11,learning,1,resources/alien2_norm.png,0.7,resources/alien1_norm.png,0.3,TRUE,TRUE,3,0.882050974,red,x,0.3182,alien2,TRUE,2,0.25836709,120,1,0.7,x,0.6622,0,232,232,232,1,0.3,0.7,0.6,0.4,TRUE,,,,,,,,,,,,,,,,,,,,,,,,,,,,,,,,,
1206ny02,2023-12-06_10h32.12.920,two_step_task_legacy,2022.2.4,Win32,59.86231667,11,learning,1,resources/alien3_norm.png,0.6,resources/alien4_norm.png,0.4,TRUE,TRUE,2,0.859626591,purple,m,0.2511,alien3,TRUE,2,0.330256437,121,1,0.6,x,0.8309,0,233,233,233,1,0.3,0.7,0.6,0.4,FALSE,,,,,,,,,,,,,,,,,,,,,,,,,,,,,,,,,
1206ny02,2023-12-06_10h32.12.920,two_step_task_legacy,2022.2.4,Win32,59.86231667,11,learning,1,resources/alien4_norm.png,0.4,resources/alien3_norm.png,0.6,TRUE,TRUE,2,0.819130462,purple,m,0.4849,alien3,TRUE,3,0.911022952,121,0,0.6,m,0.5336,0,234,234,234,1,0.3,0.7,0.6,0.4,TRUE,,,,,,,,,,,,,,,,,,,,,,,,,,,,,,,,,
1206ny02,2023-12-06_10h32.12.920,two_step_task_legacy,2022.2.4,Win32,59.86231667,11,learning,0,resources/alien2_norm.png,0.7,resources/alien1_norm.png,0.3,TRUE,TRUE,3,0.195696955,red,m,0.282,alien1,TRUE,3,0.829958088,121,0,0.3,m,0.6414,0,235,235,235,1,0.3,0.7,0.6,0.4,TRUE,,,,,,,,,,,,,,,,,,,,,,,,,,,,,,,,,
1206ny02,2023-12-06_10h32.12.920,two_step_task_legacy,2022.2.4,Win32,59.86231667,11,learning,0,resources/alien1_norm.png,0.3,resources/alien2_norm.png,0.7,TRUE,TRUE,3,0.125827762,red,m,0.4508,alien2,TRUE,2,0.565473723,122,1,0.7,m,0.5839,0,236,236,236,1,0.3,0.7,0.6,0.4,FALSE,,,,,,,,,,,,,,,,,,,,,,,,,,,,,,,,,
1206ny02,2023-12-06_10h32.12.920,two_step_task_legacy,2022.2.4,Win32,59.86231667,11,learning,0,resources/alien3_norm.png,0.6,resources/alien4_norm.png,0.4,TRUE,TRUE,2,0.571777717,purple,x,0.9854,alien3,TRUE,3,0.703737105,122,0,0.6,x,1.0116,0,237,237,237,1,0.3,0.7,0.6,0.4,FALSE,,,,,,,,,,,,,,,,,,,,,,,,,,,,,,,,,
1206ny02,2023-12-06_10h32.12.920,two_step_task_legacy,2022.2.4,Win32,59.86231667,11,learning,0,resources/alien3_norm.png,0.6,resources/alien4_norm.png,0.4,TRUE,TRUE,2,0.137908461,purple,x,0.3171,alien4,TRUE,3,0.523241886,122,0,0.4,m,0.4324,0,238,238,238,1,0.3,0.7,0.6,0.4,FALSE,,,,,,,,,,,,,,,,,,,,,,,,,,,,,,,,,
1206ny02,2023-12-06_10h32.12.920,two_step_task_legacy,2022.2.4,Win32,59.86231667,11,learning,0,resources/alien3_norm.png,0.6,resources/alien4_norm.png,0.4,TRUE,TRUE,2,0.652210474,purple,x,0.2854,alien4,TRUE,3,0.715312073,122,0,0.4,m,0.4525,0,239,239,239,1,0.3,0.7,0.6,0.4,FALSE,,,,,,,,,,,,,,,,,,,,,,,,,,,,,,,,,
1206ny02,2023-12-06_10h32.12.920,two_step_task_legacy,2022.2.4,Win32,59.86231667,11,learning,0,resources/alien4_norm.png,0.4,resources/alien3_norm.png,0.6,TRUE,TRUE,2,0.201375739,purple,x,1.0681,alien3,TRUE,2,0.392931327,123,1,0.6,m,0.6356,0,240,240,240,1,0.3,0.7,0.6,0.4,TRUE,,,,,,,,,,,,,,,,,,,,,,,,,,,,,,,,,
1206ny02,2023-12-06_10h32.12.920,two_step_task_legacy,2022.2.4,Win32,59.86231667,11,learning,1,resources/alien3_norm.png,0.6,resources/alien4_norm.png,0.4,TRUE,TRUE,2,0.705655681,purple,m,0.2672,alien3,TRUE,3,0.657640632,123,0,0.6,x,0.7003,0,241,241,241,1,0.3,0.7,0.6,0.4,FALSE,,,,,,,,,,,,,,,,,,,,,,,,,,,,,,,,,
1206ny02,2023-12-06_10h32.12.920,two_step_task_legacy,2022.2.4,Win32,59.86231667,11,learning,0,resources/alien1_norm.png,0.3,resources/alien2_norm.png,0.7,TRUE,TRUE,3,0.315085685,red,m,0.5006,alien2,TRUE,2,0.528990924,124,1,0.7,m,0.4973,0,242,242,242,1,0.3,0.7,0.6,0.4,FALSE,,,,,,,,,,,,,,,,,,,,,,,,,,,,,,,,,
1206ny02,2023-12-06_10h32.12.920,two_step_task_legacy,2022.2.4,Win32,59.86231667,11,learning,0,resources/alien2_norm.png,0.7,resources/alien1_norm.png,0.3,TRUE,TRUE,3,0.303556633,red,m,0.5551,alien2,TRUE,2,0.405566415,125,1,0.7,x,0.503,0,243,243,243,1,0.3,0.7,0.6,0.4,TRUE,,,,,,,,,,,,,,,,,,,,,,,,,,,,,,,,,
1206ny02,2023-12-06_10h32.12.920,two_step_task_legacy,2022.2.4,Win32,59.86231667,11,learning,0,resources/alien4_norm.png,0.4,resources/alien3_norm.png,0.6,TRUE,TRUE,2,0.556869226,purple,x,0.558,alien3,TRUE,2,0.204746111,126,1,0.6,m,0.4149,0,244,244,244,1,0.3,0.7,0.6,0.4,TRUE,,,,,,,,,,,,,,,,,,,,,,,,,,,,,,,,,
1206ny02,2023-12-06_10h32.12.920,two_step_task_legacy,2022.2.4,Win32,59.86231667,11,learning,0,resources/alien1_norm.png,0.3,resources/alien2_norm.png,0.7,TRUE,TRUE,3,0.681728373,red,m,0.0839,alien2,TRUE,2,0.398023724,127,1,0.7,m,0.4279,0,245,245,245,1,0.3,0.7,0.6,0.4,FALSE,,,,,,,,,,,,,,,,,,,,,,,,,,,,,,,,,
1206ny02,2023-12-06_10h32.12.920,two_step_task_legacy,2022.2.4,Win32,59.86231667,11,learning,0,resources/alien4_norm.png,0.4,resources/alien3_norm.png,0.6,TRUE,TRUE,2,0.252220934,purple,x,0.5844,alien3,TRUE,2,0.57869383,128,1,0.6,m,0.4952,0,246,246,246,1,0.3,0.7,0.6,0.4,TRUE,,,,,,,,,,,,,,,,,,,,,,,,,,,,,,,,,
1206ny02,2023-12-06_10h32.12.920,two_step_task_legacy,2022.2.4,Win32,59.86231667,11,learning,1,resources/alien3_norm.png,0.6,resources/alien4_norm.png,0.4,TRUE,TRUE,2,0.750323901,purple,m,0.1524,alien3,TRUE,3,0.74899744,128,0,0.6,x,0.5165,0,247,247,247,1,0.3,0.7,0.6,0.4,FALSE,,,,,,,,,,,,,,,,,,,,,,,,,,,,,,,,,
1206ny02,2023-12-06_10h32.12.920,two_step_task_legacy,2022.2.4,Win32,59.86231667,11,learning,0,resources/alien2_norm.png,0.7,resources/alien1_norm.png,0.3,TRUE,TRUE,3,0.038692529,red,m,0.4494,alien2,TRUE,2,0.244850103,129,1,0.7,x,0.5431,0,248,248,248,1,0.3,0.7,0.6,0.4,TRUE,,,,,,,,,,,,,,,,,,,,,,,,,,,,,,,,,
1206ny02,2023-12-06_10h32.12.920,two_step_task_legacy,2022.2.4,Win32,59.86231667,11,learning,1,resources/alien1_norm.png,0.3,resources/alien2_norm.png,0.7,TRUE,TRUE,3,0.853834144,red,x,0.5007,alien2,TRUE,2,0.120470402,130,1,0.7,m,0.4844,0,249,249,249,1,0.3,0.7,0.6,0.4,FALSE,,,,,,,,,,,,,,,,,,,,,,,,,,,,,,,,,
1206ny02,2023-12-06_10h32.12.920,two_step_task_legacy,2022.2.4,Win32,59.86231667,11,learning,1,resources/alien3_norm.png,0.6,resources/alien4_norm.png,0.4,TRUE,TRUE,2,0.81621469,purple,m,0.5494,alien3,TRUE,2,0.346492599,131,1,0.6,x,0.4752,0,250,250,250,1,0.3,0.7,0.6,0.4,FALSE,,,,,,,,,,,,,,,,,,,,,,,,,,,,,,,,,
1206ny02,2023-12-06_10h32.12.920,two_step_task_legacy,2022.2.4,Win32,59.86231667,11,learning,0,resources/alien2_norm.png,0.7,resources/alien1_norm.png,0.3,TRUE,TRUE,3,0.484662527,red,m,0.0505,alien2,TRUE,3,0.874047396,131,0,0.7,x,0.4979,0,251,251,251,1,0.3,0.7,0.6,0.4,TRUE,,,,,,,,,,,,,,,,,,,,,,,,,,,,,,,,,
1206ny02,2023-12-06_10h32.12.920,two_step_task_legacy,2022.2.4,Win32,59.86231667,11,learning,0,resources/alien1_norm.png,0.3,resources/alien2_norm.png,0.7,TRUE,TRUE,3,0.548177741,red,m,0.2506,alien2,TRUE,2,0.067489298,132,1,0.7,m,0.4168,0,252,252,252,1,0.3,0.7,0.6,0.4,FALSE,,,,,,,,,,,,,,,,,,,,,,,,,,,,,,,,,
1206ny02,2023-12-06_10h32.12.920,two_step_task_legacy,2022.2.4,Win32,59.86231667,11,learning,0,resources/alien2_norm.png,0.7,resources/alien1_norm.png,0.3,TRUE,TRUE,3,0.318951344,red,m,0.3836,alien2,TRUE,3,0.833910654,132,0,0.7,x,0.451,0,253,253,253,1,0.3,0.7,0.6,0.4,TRUE,,,,,,,,,,,,,,,,,,,,,,,,,,,,,,,,,
1206ny02,2023-12-06_10h32.12.920,two_step_task_legacy,2022.2.4,Win32,59.86231667,11,learning,1,resources/alien1_norm.png,0.3,resources/alien2_norm.png,0.7,TRUE,TRUE,3,0.711083913,red,x,0.3503,alien2,TRUE,2,0.673195339,133,1,0.7,m,0.3687,0,254,254,254,1,0.3,0.7,0.6,0.4,FALSE,,,,,,,,,,,,,,,,,,,,,,,,,,,,,,,,,
1206ny02,2023-12-06_10h32.12.920,two_step_task_legacy,2022.2.4,Win32,59.86231667,11,learning,0,resources/alien3_norm.png,0.6,resources/alien4_norm.png,0.4,TRUE,TRUE,2,0.092384464,purple,x,0.25,alien3,TRUE,2,0.476249904,134,1,0.6,x,0.4916,0,255,255,255,1,0.3,0.7,0.6,0.4,FALSE,,,,,,,,,,,,,,,,,,,,,,,,,,,,,,,,,
1206ny02,2023-12-06_10h32.12.920,two_step_task_legacy,2022.2.4,Win32,59.86231667,11,learning,0,resources/alien2_norm.png,0.7,resources/alien1_norm.png,0.3,TRUE,TRUE,3,0.311638745,red,m,0.2838,alien2,TRUE,2,0.615046973,135,1,0.7,x,0.529,0,256,256,256,1,0.3,0.7,0.6,0.4,TRUE,,,,,,,,,,,,,,,,,,,,,,,,,,,,,,,,,
1206ny02,2023-12-06_10h32.12.920,two_step_task_legacy,2022.2.4,Win32,59.86231667,11,learning,0,resources/alien4_norm.png,0.4,resources/alien3_norm.png,0.6,TRUE,TRUE,2,0.254027912,purple,x,0.1844,alien3,TRUE,2,0.272631478,136,1,0.6,m,0.4654,0,257,257,257,1,0.3,0.7,0.6,0.4,TRUE,,,,,,,,,,,,,,,,,,,,,,,,,,,,,,,,,
1206ny02,2023-12-06_10h32.12.920,two_step_task_legacy,2022.2.4,Win32,59.86231667,11,learning,1,resources/alien3_norm.png,0.6,resources/alien4_norm.png,0.4,TRUE,TRUE,2,0.940278048,purple,m,0.2856,alien3,TRUE,2,0.409644826,137,1,0.6,x,0.5669,0,258,258,258,1,0.3,0.7,0.6,0.4,FALSE,,,,,,,,,,,,,,,,,,,,,,,,,,,,,,,,,
1206ny02,2023-12-06_10h32.12.920,two_step_task_legacy,2022.2.4,Win32,59.86231667,11,learning,0,resources/alien3_norm.png,0.6,resources/alien4_norm.png,0.4,TRUE,TRUE,2,0.604590536,purple,x,0.2501,alien3,TRUE,3,0.777844573,137,0,0.6,x,0.5012,0,259,259,259,1,0.3,0.7,0.6,0.4,FALSE,,,,,,,,,,,,,,,,,,,,,,,,,,,,,,,,,
1206ny02,2023-12-06_10h32.12.920,two_step_task_legacy,2022.2.4,Win32,59.86231667,11,learning,1,resources/alien4_norm.png,0.4,resources/alien3_norm.png,0.6,TRUE,TRUE,2,0.85482544,purple,m,0.1026,alien3,TRUE,2,0.076066978,138,1,0.6,m,0.7336,0,260,260,260,1,0.3,0.7,0.6,0.4,TRUE,,,,,,,,,,,,,,,,,,,,,,,,,,,,,,,,,
1206ny02,2023-12-06_10h32.12.920,two_step_task_legacy,2022.2.4,Win32,59.86231667,11,learning,0,resources/alien1_norm.png,0.3,resources/alien2_norm.png,0.7,TRUE,TRUE,3,0.120570522,red,m,0.1671,alien2,TRUE,3,0.788245293,138,0,0.7,m,0.5787,0,261,261,261,1,0.3,0.7,0.6,0.4,FALSE,,,,,,,,,,,,,,,,,,,,,,,,,,,,,,,,,
1206ny02,2023-12-06_10h32.12.920,two_step_task_legacy,2022.2.4,Win32,59.86231667,11,learning,1,resources/alien1_norm.png,0.3,resources/alien2_norm.png,0.7,TRUE,TRUE,3,0.702716994,red,x,0.0503,alien2,TRUE,3,0.996325912,138,0,0.7,m,0.4837,0,262,262,262,1,0.3,0.7,0.6,0.4,FALSE,,,,,,,,,,,,,,,,,,,,,,,,,,,,,,,,,
1206ny02,2023-12-06_10h32.12.920,two_step_task_legacy,2022.2.4,Win32,59.86231667,11,learning,1,resources/alien3_norm.png,0.6,resources/alien4_norm.png,0.4,TRUE,TRUE,2,0.758316226,purple,m,0.4195,alien4,TRUE,3,0.68658919,138,0,0.4,m,0.463,0,263,263,263,1,0.3,0.7,0.6,0.4,FALSE,,,,,,,,,,,,,,,,,,,,,,,,,,,,,,,,,
1206ny02,2023-12-06_10h32.12.920,two_step_task_legacy,2022.2.4,Win32,59.86231667,11,learning,0,resources/alien1_norm.png,0.3,resources/alien2_norm.png,0.7,TRUE,TRUE,3,0.30611028,red,m,0.3519,alien1,TRUE,3,0.95601512,138,0,0.3,x,1.164,0,264,264,264,1,0.3,0.7,0.6,0.4,FALSE,,,,,,,,,,,,,,,,,,,,,,,,,,,,,,,,,
1206ny02,2023-12-06_10h32.12.920,two_step_task_legacy,2022.2.4,Win32,59.86231667,11,learning,0,resources/alien2_norm.png,0.7,resources/alien1_norm.png,0.3,TRUE,TRUE,3,0.198684875,red,m,0.3329,alien1,TRUE,3,0.968239331,138,0,0.3,m,0.601,0,265,265,265,1,0.3,0.7,0.6,0.4,TRUE,,,,,,,,,,,,,,,,,,,,,,,,,,,,,,,,,
1206ny02,2023-12-06_10h32.12.920,two_step_task_legacy,2022.2.4,Win32,59.86231667,11,learning,0,resources/alien1_norm.png,0.3,resources/alien2_norm.png,0.7,TRUE,TRUE,3,0.433448991,red,m,0.3173,alien2,TRUE,2,0.431367155,139,1,0.7,m,0.4336,0,266,266,266,1,0.3,0.7,0.6,0.4,FALSE,,,,,,,,,,,,,,,,,,,,,,,,,,,,,,,,,
1206ny02,2023-12-06_10h32.12.920,two_step_task_legacy,2022.2.4,Win32,59.86231667,11,learning,1,resources/alien3_norm.png,0.6,resources/alien4_norm.png,0.4,TRUE,TRUE,2,0.973367211,purple,m,0.0335,alien3,TRUE,3,0.953711437,139,0,0.6,x,1.1136,0,267,267,267,1,0.3,0.7,0.6,0.4,FALSE,,,,,,,,,,,,,,,,,,,,,,,,,,,,,,,,,
1206ny02,2023-12-06_10h32.12.920,two_step_task_legacy,2022.2.4,Win32,59.86231667,11,learning,0,resources/alien3_norm.png,0.6,resources/alien4_norm.png,0.4,TRUE,TRUE,2,0.568385555,purple,x,0.2507,alien3,TRUE,2,0.387553576,140,1,0.6,x,0.5005,0,268,268,268,1,0.3,0.7,0.6,0.4,FALSE,,,,,,,,,,,,,,,,,,,,,,,,,,,,,,,,,
1206ny02,2023-12-06_10h32.12.920,two_step_task_legacy,2022.2.4,Win32,59.86231667,11,learning,0,resources/alien3_norm.png,0.6,resources/alien4_norm.png,0.4,TRUE,TRUE,2,0.600168636,purple,x,0.1005,alien3,TRUE,2,0.080148212,141,1,0.6,x,0.6006,0,269,269,269,1,0.3,0.7,0.6,0.4,FALSE,,,,,,,,,,,,,,,,,,,,,,,,,,,,,,,,,
1206ny02,2023-12-06_10h32.12.920,two_step_task_legacy,2022.2.4,Win32,59.86231667,11,learning,1,resources/alien3_norm.png,0.6,resources/alien4_norm.png,0.4,TRUE,TRUE,2,0.726412202,purple,m,0.2364,alien4,TRUE,3,0.766170551,141,0,0.4,m,0.4688,0,270,270,270,1,0.3,0.7,0.6,0.4,FALSE,,,,,,,,,,,,,,,,,,,,,,,,,,,,,,,,,
1206ny02,2023-12-06_10h32.12.920,two_step_task_legacy,2022.2.4,Win32,59.86231667,11,learning,0,resources/alien2_norm.png,0.7,resources/alien1_norm.png,0.3,TRUE,TRUE,3,0.369259732,red,m,0.401,alien1,TRUE,3,0.304500561,141,0,0.3,m,0.4963,0,271,271,271,1,0.3,0.7,0.6,0.4,TRUE,,,,,,,,,,,,,,,,,,,,,,,,,,,,,,,,,
1206ny02,2023-12-06_10h32.12.920,two_step_task_legacy,2022.2.4,Win32,59.86231667,11,learning,1,resources/alien3_norm.png,0.6,resources/alien4_norm.png,0.4,TRUE,TRUE,2,0.800471648,purple,m,0.2674,alien3,TRUE,3,0.613188161,141,0,0.6,x,0.8129,0,272,272,272,1,0.3,0.7,0.6,0.4,FALSE,,,,,,,,,,,,,,,,,,,,,,,,,,,,,,,,,
1206ny02,2023-12-06_10h32.12.920,two_step_task_legacy,2022.2.4,Win32,59.86231667,11,learning,0,resources/alien3_norm.png,0.6,resources/alien4_norm.png,0.4,TRUE,TRUE,2,0.049317165,purple,x,0.1328,alien3,TRUE,2,0.397816892,142,1,0.6,x,0.6342,0,273,273,273,1,0.3,0.7,0.6,0.4,FALSE,,,,,,,,,,,,,,,,,,,,,,,,,,,,,,,,,
1206ny02,2023-12-06_10h32.12.920,two_step_task_legacy,2022.2.4,Win32,59.86231667,11,learning,0,resources/alien3_norm.png,0.6,resources/alien4_norm.png,0.4,TRUE,TRUE,2,0.571571109,purple,x,0.234,alien3,TRUE,2,0.470100589,143,1,0.6,x,0.4507,0,274,274,274,1,0.3,0.7,0.6,0.4,FALSE,,,,,,,,,,,,,,,,,,,,,,,,,,,,,,,,,
1206ny02,2023-12-06_10h32.12.920,two_step_task_legacy,2022.2.4,Win32,59.86231667,11,learning,0,resources/alien4_norm.png,0.4,resources/alien3_norm.png,0.6,TRUE,TRUE,2,0.02971851,purple,x,0.5507,alien3,TRUE,2,0.03345662,144,1,0.6,m,0.6004,0,275,275,275,1,0.3,0.7,0.6,0.4,TRUE,,,,,,,,,,,,,,,,,,,,,,,,,,,,,,,,,
1206ny02,2023-12-06_10h32.12.920,two_step_task_legacy,2022.2.4,Win32,59.86231667,11,learning,0,resources/alien1_norm.png,0.3,resources/alien2_norm.png,0.7,TRUE,TRUE,3,0.181902424,red,m,0.2507,alien2,TRUE,2,0.189334403,145,1,0.7,m,0.4948,0,276,276,276,1,0.3,0.7,0.6,0.4,FALSE,,,,,,,,,,,,,,,,,,,,,,,,,,,,,,,,,
1206ny02,2023-12-06_10h32.12.920,two_step_task_legacy,2022.2.4,Win32,59.86231667,11,learning,0,resources/alien2_norm.png,0.7,resources/alien1_norm.png,0.3,TRUE,TRUE,3,0.253193899,red,m,0.2022,alien2,TRUE,2,0.507974618,146,1,0.7,x,0.5522,0,277,277,277,1,0.3,0.7,0.6,0.4,TRUE,,,,,,,,,,,,,,,,,,,,,,,,,,,,,,,,,
1206ny02,2023-12-06_10h32.12.920,two_step_task_legacy,2022.2.4,Win32,59.86231667,11,learning,1,resources/alien3_norm.png,0.6,resources/alien4_norm.png,0.4,TRUE,TRUE,2,0.968081976,purple,m,0.4675,alien3,TRUE,2,0.275365138,147,1,0.6,x,0.5097,0,278,278,278,1,0.3,0.7,0.6,0.4,FALSE,,,,,,,,,,,,,,,,,,,,,,,,,,,,,,,,,
1206ny02,2023-12-06_10h32.12.920,two_step_task_legacy,2022.2.4,Win32,59.86231667,11,learning,0,resources/alien3_norm.png,0.6,resources/alien4_norm.png,0.4,TRUE,TRUE,2,0.03988382,purple,x,0.5344,alien3,TRUE,2,0.277297502,148,1,0.6,x,0.467,0,279,279,279,1,0.3,0.7,0.6,0.4,FALSE,,,,,,,,,,,,,,,,,,,,,,,,,,,,,,,,,
1206ny02,2023-12-06_10h32.12.920,two_step_task_legacy,2022.2.4,Win32,59.86231667,11,learning,1,resources/alien1_norm.png,0.3,resources/alien2_norm.png,0.7,TRUE,TRUE,3,0.896093924,red,x,0.3332,alien2,TRUE,2,0.615743428,149,1,0.7,m,0.4472,0,280,280,280,1,0.3,0.7,0.6,0.4,FALSE,,,,,,,,,,,,,,,,,,,,,,,,,,,,,,,,,
1206ny02,2023-12-06_10h32.12.920,two_step_task_legacy,2022.2.4,Win32,59.86231667,11,learning,0,resources/alien2_norm.png,0.7,resources/alien1_norm.png,0.3,TRUE,TRUE,3,0.21638111,red,m,0.3357,alien2,TRUE,2,0.476114729,150,1,0.7,x,0.5509,0,281,281,281,1,0.3,0.7,0.6,0.4,TRUE,,,,,,,,,,,,,,,,,,,,,,,,,,,,,,,,,
1206ny02,2023-12-06_10h32.12.920,two_step_task_legacy,2022.2.4,Win32,59.86231667,11,learning,0,resources/alien4_norm.png,0.4,resources/alien3_norm.png,0.6,TRUE,TRUE,2,0.388922355,purple,x,0.2841,alien3,TRUE,2,0.405822693,151,1,0.6,m,0.4793,0,282,282,282,1,0.3,0.7,0.6,0.4,TRUE,,,,,,,,,,,,,,,,,,,,,,,,,,,,,,,,,
1206ny02,2023-12-06_10h32.12.920,two_step_task_legacy,2022.2.4,Win32,59.86231667,11,learning,0,resources/alien1_norm.png,0.3,resources/alien2_norm.png,0.7,TRUE,TRUE,3,0.502702536,red,m,0.3343,alien2,TRUE,2,0.646352322,152,1,0.7,m,0.5277,0,283,283,283,1,0.3,0.7,0.6,0.4,FALSE,,,,,,,,,,,,,,,,,,,,,,,,,,,,,,,,,
1206ny02,2023-12-06_10h32.12.920,two_step_task_legacy,2022.2.4,Win32,59.86231667,11,learning,0,resources/alien1_norm.png,0.3,resources/alien2_norm.png,0.7,TRUE,TRUE,3,0.261122632,red,m,0.4678,alien2,TRUE,3,0.822636271,152,0,0.7,m,0.4673,0,284,284,284,1,0.3,0.7,0.6,0.4,FALSE,,,,,,,,,,,,,,,,,,,,,,,,,,,,,,,,,
1206ny02,2023-12-06_10h32.12.920,two_step_task_legacy,2022.2.4,Win32,59.86231667,11,learning,0,resources/alien1_norm.png,0.3,resources/alien2_norm.png,0.7,TRUE,TRUE,3,0.287227613,red,m,0.0662,alien2,TRUE,3,0.733017102,152,0,0.7,m,0.3664,0,285,285,285,1,0.3,0.7,0.6,0.4,FALSE,,,,,,,,,,,,,,,,,,,,,,,,,,,,,,,,,
1206ny02,2023-12-06_10h32.12.920,two_step_task_legacy,2022.2.4,Win32,59.86231667,11,learning,1,resources/alien3_norm.png,0.6,resources/alien4_norm.png,0.4,TRUE,TRUE,2,0.740535654,purple,m,0.2517,alien3,TRUE,2,0.331423917,153,1,0.6,x,0.9576,0,286,286,286,1,0.3,0.7,0.6,0.4,FALSE,,,,,,,,,,,,,,,,,,,,,,,,,,,,,,,,,
1206ny02,2023-12-06_10h32.12.920,two_step_task_legacy,2022.2.4,Win32,59.86231667,11,learning,0,resources/alien3_norm.png,0.6,resources/alien4_norm.png,0.4,TRUE,TRUE,2,0.275084219,purple,x,0.2341,alien3,TRUE,3,0.80740164,153,0,0.6,x,0.402,0,287,287,287,1,0.3,0.7,0.6,0.4,FALSE,,,,,,,,,,,,,,,,,,,,,,,,,,,,,,,,,
1206ny02,2023-12-06_10h32.12.920,two_step_task_legacy,2022.2.4,Win32,59.86231667,11,learning,0,resources/alien3_norm.png,0.6,resources/alien4_norm.png,0.4,TRUE,TRUE,2,0.327259365,purple,x,0.4509,alien4,TRUE,2,0.377349147,154,1,0.4,m,0.6341,0,288,288,288,1,0.3,0.7,0.6,0.4,FALSE,,,,,,,,,,,,,,,,,,,,,,,,,,,,,,,,,
1206ny02,2023-12-06_10h32.12.920,two_step_task_legacy,2022.2.4,Win32,59.86231667,11,learning,1,resources/alien1_norm.png,0.3,resources/alien2_norm.png,0.7,TRUE,TRUE,3,0.907678587,red,x,0.3825,alien1,TRUE,3,0.854742208,154,0,0.3,x,0.5955,0,289,289,289,1,0.3,0.7,0.6,0.4,FALSE,,,,,,,,,,,,,,,,,,,,,,,,,,,,,,,,,
